[{"rt":1439972,"response":{"P0_Q0":null,"motor_perm":1,"design_perm":4},"accuracy":[],"trial_type":"survey","trial_index":0,"time_elapsed":1439979,"internal_node_id":"0.0-0.0","motor_perm":1,"design_perm":4},{"success":true,"trial_type":"fullscreen","trial_index":1,"time_elapsed":1441815,"internal_node_id":"0.0-1.0"},{"rt":30673,"stimulus":"<div class=\"bigbox\"><div class=\"picture_box\"><p class=\"block-text\"><div class=\"centerbox\" style='width: 60vw; height: auto !important;'>\n    <p class=\"block-text\">During this task, on each trial rectangles will appear on the screen. The rectangles can be either black or white in color.</p>\n    <p class=\"block-text\">On some trials, <b>one</b> of these rectangles will be a <b>vertical white rectangle</b>. We will call this rectangle the 'target'.</p>\n    <div style=\"display: flex; align-items: center; justify-content: center; padding-top: 80px; padding-bottom: 80px;\">\n    <p style=\"width: 70%; font-size: 24px;\">The target looks like: </p>\n    <div style=\"display: flex; justify-content: center; align-items: center; width:100%;\">\n    <div id=\"target\" class=\"box\" style=\"background-color:white; width:40px; height:80px;\"></div>\n    </div>\n    </div>\n    <p class=\"block-text\">Your task is to determine whether a target is absent or present on each trial.</p>\n    <p class=\"block-text\">If you determine a target is <b>absent</b>, press your <b>index finger</b>, and if you determine a target is <b>present</b>, press your <b>middle finger</b>.</p>\n    <p class=\"block-text\">We'll start with a practice round. During practice, you will receive feedback and a reminder of the rules. These will be taken out for the test, so make sure you understand the instructions before moving on.</p>\n    <p class = block-text>Try to respond as quickly and accurately as possible.</p>\n  </div></p></div></div>","response":" ","trial_id":"practice_feedback","exp_stage":"practice","trial_duration":4000,"block_num":0,"trial_type":"html-keyboard-response","trial_index":2,"time_elapsed":1472493,"internal_node_id":"0.0-2.0-0.0","block_level_feedback":{}},{"rt":null,"stimulus":"<div class = centerbox><div class = fixation>+</div></div>","response":null,"trial_id":"practice_ITI","ITIParams":{"min":0,"max":5,"mean":0.5},"block_num":0,"exp_stage":"practice","trial_type":"html-keyboard-response","trial_index":3,"time_elapsed":1474080,"internal_node_id":"0.0-2.0-1.0","trial_duration":1584.2850244520296,"stimulus_duration":1584.2850244520296},{"rt":529,"stimulus":"<div class=\"container\" style=\"position: absolute; left: 50%; top: 50%; transform: translate(-50%, -50%); width: 1057px; height: 542.5px;\"><div id=\"white-distractor-element\"  class=\"box\" style=\"position: absolute; left: 325.6666666666667px; top: 44.5px; width: 40px; height: 80px; background-color: white; transform: rotate(90deg); transform-origin: center;\"></div><div id=\"white-distractor-element\"  class=\"box\" style=\"position: absolute; left: 691.3333333333334px; top: 44.5px; width: 40px; height: 80px; background-color: white; transform: rotate(90deg); transform-origin: center;\"></div><div id=\"white-distractor-element\"  class=\"box\" style=\"position: absolute; left: 325.6666666666667px; top: 169px; width: 40px; height: 80px; background-color: white; transform: rotate(90deg); transform-origin: center;\"></div><div id=\"black-distractor-element\"  class=\"box\" style=\"position: absolute; left: 691.3333333333334px; top: 169px; width: 40px; height: 80px; background-color: black;\"></div><div id=\"black-distractor-element\"  class=\"box\" style=\"position: absolute; left: 325.6666666666667px; top: 293.5px; width: 40px; height: 80px; background-color: black;\"></div><div id=\"white-distractor-element\"  class=\"box\" style=\"position: absolute; left: 691.3333333333334px; top: 293.5px; width: 40px; height: 80px; background-color: white; transform: rotate(90deg); transform-origin: center;\"></div><div id=\"white-distractor-element\"  class=\"box\" style=\"position: absolute; left: 325.6666666666667px; top: 418px; width: 40px; height: 80px; background-color: white; transform: rotate(90deg); transform-origin: center;\"></div><div id=\"white-distractor-element\"  class=\"box\" style=\"position: absolute; left: 691.3333333333334px; top: 418px; width: 40px; height: 80px; background-color: white; transform: rotate(90deg); transform-origin: center;\"></div></div>","response":"g","trial_id":"practice_trial","choices":["g","y"],"trial_duration":2000,"stimulus_duration":1500,"block_num":0,"trial_type":"html-keyboard-response","trial_index":4,"time_elapsed":1476083,"internal_node_id":"0.0-2.0-2.0","target_present":0,"num_stimuli":8,"condition":"conjunction","exp_stage":"practice","correct_response":"y","correct_trial":0,"order_and_color_of_rectangles":["white horizontal","white horizontal","white horizontal","black vertical","black vertical","white horizontal","white horizontal","white horizontal"],"target_rectangle_location":null},{"rt":null,"stimulus":"<div class=center-box><p class=center-text>Incorrect!</div></div>","response":null,"exp_stage":"practice","trial_id":"practice_feedback","trial_duration":500,"stimulus_duration":500,"block_num":0,"trial_type":"html-keyboard-response","trial_index":5,"time_elapsed":1476590,"internal_node_id":"0.0-2.0-3.0"},{"rt":null,"stimulus":"<div class = centerbox><div class = fixation>+</div></div>","response":null,"trial_id":"practice_ITI","ITIParams":{"min":0,"max":5,"mean":0.5},"block_num":0,"exp_stage":"practice","trial_type":"html-keyboard-response","trial_index":6,"time_elapsed":1477540,"internal_node_id":"0.0-2.0-4.0","trial_duration":944.8297544240421,"stimulus_duration":944.8297544240421},{"rt":918,"stimulus":"<div class=\"container\" style=\"position: absolute; left: 50%; top: 50%; transform: translate(-50%, -50%); width: 1057px; height: 542.5px;\"><div id=\"black-distractor-element\"  class=\"box\" style=\"position: absolute; left: 179.4px; top: 8.928571428571429px; width: 40px; height: 80px; background-color: black;\"></div><div id=\"white-distractor-element\"  class=\"box\" style=\"position: absolute; left: 398.8px; top: 8.928571428571429px; width: 40px; height: 80px; background-color: white; transform: rotate(90deg); transform-origin: center;\"></div><div id=\"white-distractor-element\"  class=\"box\" style=\"position: absolute; left: 618.2px; top: 8.928571428571429px; width: 40px; height: 80px; background-color: white; transform: rotate(90deg); transform-origin: center;\"></div><div id=\"black-distractor-element\"  class=\"box\" style=\"position: absolute; left: 837.6px; top: 8.928571428571429px; width: 40px; height: 80px; background-color: black;\"></div><div id=\"black-distractor-element\"  class=\"box\" style=\"position: absolute; left: 179.4px; top: 97.85714285714286px; width: 40px; height: 80px; background-color: black;\"></div><div id=\"white-distractor-element\"  class=\"box\" style=\"position: absolute; left: 398.8px; top: 97.85714285714286px; width: 40px; height: 80px; background-color: white; transform: rotate(90deg); transform-origin: center;\"></div><div id=\"black-distractor-element\"  class=\"box\" style=\"position: absolute; left: 618.2px; top: 97.85714285714286px; width: 40px; height: 80px; background-color: black;\"></div><div id=\"white-distractor-element\"  class=\"box\" style=\"position: absolute; left: 837.6px; top: 97.85714285714286px; width: 40px; height: 80px; background-color: white; transform: rotate(90deg); transform-origin: center;\"></div><div id=\"white-distractor-element\"  class=\"box\" style=\"position: absolute; left: 179.4px; top: 186.78571428571428px; width: 40px; height: 80px; background-color: white; transform: rotate(90deg); transform-origin: center;\"></div><div id=\"black-distractor-element\"  class=\"box\" style=\"position: absolute; left: 398.8px; top: 186.78571428571428px; width: 40px; height: 80px; background-color: black;\"></div><div id=\"black-distractor-element\"  class=\"box\" style=\"position: absolute; left: 618.2px; top: 186.78571428571428px; width: 40px; height: 80px; background-color: black;\"></div><div id=\"white-distractor-element\"  class=\"box\" style=\"position: absolute; left: 837.6px; top: 186.78571428571428px; width: 40px; height: 80px; background-color: white; transform: rotate(90deg); transform-origin: center;\"></div><div id=\"black-distractor-element\"  class=\"box\" style=\"position: absolute; left: 179.4px; top: 275.7142857142857px; width: 40px; height: 80px; background-color: black;\"></div><div id=\"black-distractor-element\"  class=\"box\" style=\"position: absolute; left: 398.8px; top: 275.7142857142857px; width: 40px; height: 80px; background-color: black;\"></div><div id=\"black-distractor-element\"  class=\"box\" style=\"position: absolute; left: 618.2px; top: 275.7142857142857px; width: 40px; height: 80px; background-color: black;\"></div><div id=\"target\" class=\"box\" style=\"position: absolute; left: 837.6px; top: 275.7142857142857px; width: 40px; height: 80px; background-color: white;\"></div><div id=\"black-distractor-element\"  class=\"box\" style=\"position: absolute; left: 179.4px; top: 364.64285714285717px; width: 40px; height: 80px; background-color: black;\"></div><div id=\"black-distractor-element\"  class=\"box\" style=\"position: absolute; left: 398.8px; top: 364.64285714285717px; width: 40px; height: 80px; background-color: black;\"></div><div id=\"black-distractor-element\"  class=\"box\" style=\"position: absolute; left: 618.2px; top: 364.64285714285717px; width: 40px; height: 80px; background-color: black;\"></div><div id=\"white-distractor-element\"  class=\"box\" style=\"position: absolute; left: 837.6px; top: 364.64285714285717px; width: 40px; height: 80px; background-color: white; transform: rotate(90deg); transform-origin: center;\"></div><div id=\"white-distractor-element\"  class=\"box\" style=\"position: absolute; left: 179.4px; top: 453.57142857142856px; width: 40px; height: 80px; background-color: white; transform: rotate(90deg); transform-origin: center;\"></div><div id=\"black-distractor-element\"  class=\"box\" style=\"position: absolute; left: 398.8px; top: 453.57142857142856px; width: 40px; height: 80px; background-color: black;\"></div><div id=\"white-distractor-element\"  class=\"box\" style=\"position: absolute; left: 618.2px; top: 453.57142857142856px; width: 40px; height: 80px; background-color: white; transform: rotate(90deg); transform-origin: center;\"></div><div id=\"black-distractor-element\"  class=\"box\" style=\"position: absolute; left: 837.6px; top: 453.57142857142856px; width: 40px; height: 80px; background-color: black;\"></div></div>","response":"g","trial_id":"practice_trial","choices":["g","y"],"trial_duration":2000,"stimulus_duration":1500,"block_num":0,"trial_type":"html-keyboard-response","trial_index":7,"time_elapsed":1479545,"internal_node_id":"0.0-2.0-5.0","target_present":1,"num_stimuli":24,"condition":"conjunction","exp_stage":"practice","correct_response":"g","correct_trial":1,"order_and_color_of_rectangles":["black vertical","white horizontal","white horizontal","black vertical","black vertical","white horizontal","black vertical","white horizontal","white horizontal","black vertical","black vertical","white horizontal","black vertical","black vertical","black vertical","white vertical","black vertical","black vertical","black vertical","white horizontal","white horizontal","black vertical","white horizontal","black vertical"],"target_rectangle_location":15},{"rt":null,"stimulus":"<div class=center-box><p class=center-text>Correct!</div></div>","response":null,"exp_stage":"practice","trial_id":"practice_feedback","trial_duration":500,"stimulus_duration":500,"block_num":0,"trial_type":"html-keyboard-response","trial_index":8,"time_elapsed":1480050,"internal_node_id":"0.0-2.0-6.0"},{"rt":null,"stimulus":"<div class = centerbox><div class = fixation>+</div></div>","response":null,"trial_id":"practice_ITI","ITIParams":{"min":0,"max":5,"mean":0.5},"block_num":0,"exp_stage":"practice","trial_type":"html-keyboard-response","trial_index":9,"time_elapsed":1480601,"internal_node_id":"0.0-2.0-7.0","trial_duration":550.3023190867243,"stimulus_duration":550.3023190867243},{"rt":805,"stimulus":"<div class=\"container\" style=\"position: absolute; left: 50%; top: 50%; transform: translate(-50%, -50%); width: 1057px; height: 542.5px;\"><div id=\"black-distractor-element\" class=\"box\" style=\"position: absolute; left: 325.6666666666667px; top: 44.5px; width: 40px; height: 80px; background-color: black;\"></div><div id=\"black-distractor-element\" class=\"box\" style=\"position: absolute; left: 691.3333333333334px; top: 44.5px; width: 40px; height: 80px; background-color: black;\"></div><div id=\"black-distractor-element\" class=\"box\" style=\"position: absolute; left: 325.6666666666667px; top: 169px; width: 40px; height: 80px; background-color: black;\"></div><div id=\"black-distractor-element\" class=\"box\" style=\"position: absolute; left: 691.3333333333334px; top: 169px; width: 40px; height: 80px; background-color: black;\"></div><div id=\"black-distractor-element\" class=\"box\" style=\"position: absolute; left: 325.6666666666667px; top: 293.5px; width: 40px; height: 80px; background-color: black;\"></div><div id=\"black-distractor-element\" class=\"box\" style=\"position: absolute; left: 691.3333333333334px; top: 293.5px; width: 40px; height: 80px; background-color: black;\"></div><div id=\"black-distractor-element\" class=\"box\" style=\"position: absolute; left: 325.6666666666667px; top: 418px; width: 40px; height: 80px; background-color: black;\"></div><div id=\"target\" class=\"box\" style=\"position: absolute; left: 691.3333333333334px; top: 418px; width: 40px; height: 80px; background-color: white;\"></div></div>","response":"g","trial_id":"practice_trial","choices":["g","y"],"trial_duration":2000,"stimulus_duration":1500,"block_num":0,"trial_type":"html-keyboard-response","trial_index":10,"time_elapsed":1482606,"internal_node_id":"0.0-2.0-8.0","target_present":1,"num_stimuli":8,"condition":"feature","exp_stage":"practice","correct_response":"g","correct_trial":1,"order_and_color_of_rectangles":["black vertical","black vertical","black vertical","black vertical","black vertical","black vertical","black vertical","white vertical"],"target_rectangle_location":7},{"rt":null,"stimulus":"<div class=center-box><p class=center-text>Correct!</div></div>","response":null,"exp_stage":"practice","trial_id":"practice_feedback","trial_duration":500,"stimulus_duration":500,"block_num":0,"trial_type":"html-keyboard-response","trial_index":11,"time_elapsed":1483112,"internal_node_id":"0.0-2.0-9.0"},{"rt":null,"stimulus":"<div class = centerbox><div class = fixation>+</div></div>","response":null,"trial_id":"practice_ITI","ITIParams":{"min":0,"max":5,"mean":0.5},"block_num":0,"exp_stage":"practice","trial_type":"html-keyboard-response","trial_index":12,"time_elapsed":1483935,"internal_node_id":"0.0-2.0-10.0","trial_duration":816.9618540391849,"stimulus_duration":816.9618540391849},{"rt":969,"stimulus":"<div class=\"container\" style=\"position: absolute; left: 50%; top: 50%; transform: translate(-50%, -50%); width: 1057px; height: 542.5px;\"><div id=\"black-distractor-element\" class=\"box\" style=\"position: absolute; left: 179.4px; top: 8.928571428571429px; width: 40px; height: 80px; background-color: black;\"></div><div id=\"black-distractor-element\" class=\"box\" style=\"position: absolute; left: 398.8px; top: 8.928571428571429px; width: 40px; height: 80px; background-color: black;\"></div><div id=\"black-distractor-element\" class=\"box\" style=\"position: absolute; left: 618.2px; top: 8.928571428571429px; width: 40px; height: 80px; background-color: black;\"></div><div id=\"black-distractor-element\" class=\"box\" style=\"position: absolute; left: 837.6px; top: 8.928571428571429px; width: 40px; height: 80px; background-color: black;\"></div><div id=\"black-distractor-element\" class=\"box\" style=\"position: absolute; left: 179.4px; top: 97.85714285714286px; width: 40px; height: 80px; background-color: black;\"></div><div id=\"black-distractor-element\" class=\"box\" style=\"position: absolute; left: 398.8px; top: 97.85714285714286px; width: 40px; height: 80px; background-color: black;\"></div><div id=\"black-distractor-element\" class=\"box\" style=\"position: absolute; left: 618.2px; top: 97.85714285714286px; width: 40px; height: 80px; background-color: black;\"></div><div id=\"black-distractor-element\" class=\"box\" style=\"position: absolute; left: 837.6px; top: 97.85714285714286px; width: 40px; height: 80px; background-color: black;\"></div><div id=\"black-distractor-element\" class=\"box\" style=\"position: absolute; left: 179.4px; top: 186.78571428571428px; width: 40px; height: 80px; background-color: black;\"></div><div id=\"black-distractor-element\" class=\"box\" style=\"position: absolute; left: 398.8px; top: 186.78571428571428px; width: 40px; height: 80px; background-color: black;\"></div><div id=\"black-distractor-element\" class=\"box\" style=\"position: absolute; left: 618.2px; top: 186.78571428571428px; width: 40px; height: 80px; background-color: black;\"></div><div id=\"black-distractor-element\" class=\"box\" style=\"position: absolute; left: 837.6px; top: 186.78571428571428px; width: 40px; height: 80px; background-color: black;\"></div><div id=\"black-distractor-element\" class=\"box\" style=\"position: absolute; left: 179.4px; top: 275.7142857142857px; width: 40px; height: 80px; background-color: black;\"></div><div id=\"black-distractor-element\" class=\"box\" style=\"position: absolute; left: 398.8px; top: 275.7142857142857px; width: 40px; height: 80px; background-color: black;\"></div><div id=\"black-distractor-element\" class=\"box\" style=\"position: absolute; left: 618.2px; top: 275.7142857142857px; width: 40px; height: 80px; background-color: black;\"></div><div id=\"black-distractor-element\" class=\"box\" style=\"position: absolute; left: 837.6px; top: 275.7142857142857px; width: 40px; height: 80px; background-color: black;\"></div><div id=\"black-distractor-element\" class=\"box\" style=\"position: absolute; left: 179.4px; top: 364.64285714285717px; width: 40px; height: 80px; background-color: black;\"></div><div id=\"black-distractor-element\" class=\"box\" style=\"position: absolute; left: 398.8px; top: 364.64285714285717px; width: 40px; height: 80px; background-color: black;\"></div><div id=\"black-distractor-element\" class=\"box\" style=\"position: absolute; left: 618.2px; top: 364.64285714285717px; width: 40px; height: 80px; background-color: black;\"></div><div id=\"black-distractor-element\" class=\"box\" style=\"position: absolute; left: 837.6px; top: 364.64285714285717px; width: 40px; height: 80px; background-color: black;\"></div><div id=\"black-distractor-element\" class=\"box\" style=\"position: absolute; left: 179.4px; top: 453.57142857142856px; width: 40px; height: 80px; background-color: black;\"></div><div id=\"black-distractor-element\" class=\"box\" style=\"position: absolute; left: 398.8px; top: 453.57142857142856px; width: 40px; height: 80px; background-color: black;\"></div><div id=\"black-distractor-element\" class=\"box\" style=\"position: absolute; left: 618.2px; top: 453.57142857142856px; width: 40px; height: 80px; background-color: black;\"></div><div id=\"black-distractor-element\" class=\"box\" style=\"position: absolute; left: 837.6px; top: 453.57142857142856px; width: 40px; height: 80px; background-color: black;\"></div></div>","response":"y","trial_id":"practice_trial","choices":["g","y"],"trial_duration":2000,"stimulus_duration":1500,"block_num":0,"trial_type":"html-keyboard-response","trial_index":13,"time_elapsed":1485941,"internal_node_id":"0.0-2.0-11.0","target_present":0,"num_stimuli":24,"condition":"feature","exp_stage":"practice","correct_response":"y","correct_trial":1,"order_and_color_of_rectangles":["black vertical","black vertical","black vertical","black vertical","black vertical","black vertical","black vertical","black vertical","black vertical","black vertical","black vertical","black vertical","black vertical","black vertical","black vertical","black vertical","black vertical","black vertical","black vertical","black vertical","black vertical","black vertical","black vertical","black vertical"],"target_rectangle_location":null},{"rt":null,"stimulus":"<div class=center-box><p class=center-text>Correct!</div></div>","response":null,"exp_stage":"practice","trial_id":"practice_feedback","trial_duration":500,"stimulus_duration":500,"block_num":0,"trial_type":"html-keyboard-response","trial_index":14,"time_elapsed":1486447,"internal_node_id":"0.0-2.0-12.0"},{"rt":8411,"stimulus":"<div class=\"bigbox\"><div class=\"picture_box\"><p class=\"block-text\"><div class = centerbox><p class = block-text>Please take a short break.</p></div></p></div></div>","response":" ","trial_id":"practice_feedback","exp_stage":"practice","trial_duration":4000,"block_num":0,"trial_type":"html-keyboard-response","trial_index":15,"time_elapsed":1494858,"internal_node_id":"0.0-3.0","block_level_feedback":{}},{"rt":null,"stimulus":"\n  <div class=\"centerbox\" style=\"height: 50vh;\">\n    <p class=\"center-block-text\">Thanks for completing this task!</p>\n  </div>","response":null,"trial_id":"end","exp_id":"visual_search_rdoc_practice__fmri","trial_duration":10000,"trial_type":"html-keyboard-response","trial_index":16,"time_elapsed":1505051,"internal_node_id":"0.0-4.0"},{"success":true,"trial_type":"fullscreen","trial_index":17,"time_elapsed":1506056,"internal_node_id":"0.0-5.0"}]