[{"rt":1312850,"response":{"P0_Q0":null,"motor_perm":0,"design_perm":1},"accuracy":[],"trial_type":"survey","trial_index":0,"time_elapsed":1312861,"internal_node_id":"0.0-0.0","motor_perm":0,"design_perm":1},{"success":true,"trial_type":"fullscreen","trial_index":1,"time_elapsed":1316825,"internal_node_id":"0.0-1.0"},{"rt":47010,"stimulus":"<div class = bigbox><div class = picture_box><p class = block-text>\n    \n  <div class=\"centerbox\">\n    <p class=\"block-text\">During this task, on each trial you will see shapes appear on the screen one at a time.</p>\n    <p class=\"block-text\">If the shape is a <b>circle</b>, press your <b>index finger</b>.</p>\n    <p class=\"block-text\">If the shape is a <b>square</b>, press your <b>middle finger</b>.</p>\n    <p class=\"block-text\">You should respond as quickly and accurately as possible to each shape.</p>\n    <p class=\"block-text\">On some trials, a star will appear around the shape, with or shortly after the shape appears.</p>\n    <p class=\"block-text\">If you see the star, please try your best to <b>withhold your response</b> on that trial.</p>\n    <p class=\"block-text\">If the star appears and you try your best to withhold your response, you will find that you will be able to stop sometimes, but not always.</p>\n    <p class=\"block-text\">Please <b>do not</b> slow down your responses in order to wait for the star. It is equally important to respond quickly on trials without the star as it is to stop on trials with the star.</p>\n    <p class=\"block-text\">We'll start with a practice round. During practice, you will receive feedback and a reminder of the rules. These will be taken out for the test, so make sure you understand the instructions before moving on.</p>\n    <p class = block-text>Try to respond as quickly and accurately as possible.</p>\n  </div>\n    </font></p></div></div>","response":" ","trial_id":"practice_feedback","exp_stage":"practice","trial_duration":4000,"block_num":0,"trial_type":"html-keyboard-response","trial_index":2,"time_elapsed":1363839,"internal_node_id":"0.0-2.0-0.0","block_level_feedback":{}},{"rt":null,"stimulus":"<div class = centerbox><div class = fixation>+</div></div>","response":null,"trial_id":"practice_ITI","ITIParams":{"min":0,"max":5,"mean":0.5},"block_num":0,"exp_stage":"practice","trial_type":"html-keyboard-response","trial_index":3,"time_elapsed":1364877,"internal_node_id":"0.0-2.0-1.0","trial_duration":1031.4170760354932,"stimulus_duration":1031.4170760354932},{"rt":437,"response":"y","trial_id":"practice_trial","exp_stage":"practice","trial_duration":1500,"stimulus_duration":1000,"trial_type":"poldracklab-stop-signal","trial_index":4,"time_elapsed":1366383,"internal_node_id":"0.0-2.0-2.0","response_ends_trial":false,"stimulus":"<div class = centerbox><div class = cue-text><img class = center src='/static/experiments/stop_signal_rdoc_practice__fmri/images/circle.png'></img></div></div>","SS_stimulus":"<img class = center src='/static/experiments/stop_signal_rdoc_practice__fmri/images/stopSignal.png'></img>","SS_trial_type":"stop","SS_duration":500,"SSD":250,"choices":["y","g"],"stim":"circle","correct_response":"y","current_trial":1,"condition":"stop","block_num":0,"correct_trial":0},{"rt":null,"stimulus":"<div class=center-box><div class=center-text><font size = 20>There was a star</font></div></div>\n    <div class=\"prompt_box\">\n      <p class=\"center-block-text\" style=\"font-size:16px; line-height:80%;\">Circle: Index</p>\n      <p class=\"center-block-text\" style=\"font-size:16px; line-height:80%;\">Square: Middle</p>\n      <p class=\"center-block-text\" style=\"font-size:16px; line-height:80%;\">Star: Do not respond</p>\n    </div>\n  ","response":null,"exp_stage":"practice","trial_id":"practice_feedback","trial_duration":500,"stimulus_duration":500,"block_num":0,"trial_type":"html-keyboard-response","trial_index":5,"time_elapsed":1366890,"internal_node_id":"0.0-2.0-3.0"},{"rt":null,"stimulus":"<div class = centerbox><div class = fixation>+</div></div>","response":null,"trial_id":"practice_ITI","ITIParams":{"min":0,"max":5,"mean":0.5},"block_num":0,"exp_stage":"practice","trial_type":"html-keyboard-response","trial_index":6,"time_elapsed":1368577,"internal_node_id":"0.0-2.0-4.0","trial_duration":1681.0144129814012,"stimulus_duration":1681.0144129814012},{"rt":260,"response":"y","trial_id":"practice_trial","exp_stage":"practice","trial_duration":1500,"stimulus_duration":1000,"trial_type":"poldracklab-stop-signal","trial_index":7,"time_elapsed":1370080,"internal_node_id":"0.0-2.0-5.0","response_ends_trial":false,"stimulus":"<div class = centerbox><div class = cue-text><img class = center src='/static/experiments/stop_signal_rdoc_practice__fmri/images/circle.png'></img></div></div>","SS_stimulus":"<img class = center src='/static/experiments/stop_signal_rdoc_practice__fmri/images/stopSignal.png'></img>","SS_trial_type":"go","SS_duration":500,"SSD":200,"choices":["y","g"],"stim":"circle","correct_response":"y","current_trial":2,"condition":"go","block_num":0,"correct_trial":1},{"rt":null,"stimulus":"<div class=center-box><div class=center-text><font size = 20>Correct!</font></div></div>\n    <div class=\"prompt_box\">\n      <p class=\"center-block-text\" style=\"font-size:16px; line-height:80%;\">Circle: Index</p>\n      <p class=\"center-block-text\" style=\"font-size:16px; line-height:80%;\">Square: Middle</p>\n      <p class=\"center-block-text\" style=\"font-size:16px; line-height:80%;\">Star: Do not respond</p>\n    </div>\n  ","response":null,"exp_stage":"practice","trial_id":"practice_feedback","trial_duration":500,"stimulus_duration":500,"block_num":0,"trial_type":"html-keyboard-response","trial_index":8,"time_elapsed":1370582,"internal_node_id":"0.0-2.0-6.0"},{"rt":350,"stimulus":"<div class = centerbox><div class = fixation>+</div></div>","response":"e","trial_id":"practice_ITI","ITIParams":{"min":0,"max":5,"mean":0.5},"block_num":0,"exp_stage":"practice","trial_type":"html-keyboard-response","trial_index":9,"time_elapsed":1371179,"internal_node_id":"0.0-2.0-7.0","trial_duration":591.0513632700533,"stimulus_duration":591.0513632700533},{"rt":477,"response":"g","trial_id":"practice_trial","exp_stage":"practice","trial_duration":1500,"stimulus_duration":1000,"trial_type":"poldracklab-stop-signal","trial_index":10,"time_elapsed":1372686,"internal_node_id":"0.0-2.0-8.0","response_ends_trial":false,"stimulus":"<div class = centerbox><div class = cue-text><img class = center src='/static/experiments/stop_signal_rdoc_practice__fmri/images/square.png'></img></div></div>","SS_stimulus":"<img class = center src='/static/experiments/stop_signal_rdoc_practice__fmri/images/stopSignal.png'></img>","SS_trial_type":"go","SS_duration":500,"SSD":200,"choices":["y","g"],"stim":"square","correct_response":"g","current_trial":3,"condition":"go","block_num":0,"correct_trial":1},{"rt":null,"stimulus":"<div class=center-box><div class=center-text><font size = 20>Correct!</font></div></div>\n    <div class=\"prompt_box\">\n      <p class=\"center-block-text\" style=\"font-size:16px; line-height:80%;\">Circle: Index</p>\n      <p class=\"center-block-text\" style=\"font-size:16px; line-height:80%;\">Square: Middle</p>\n      <p class=\"center-block-text\" style=\"font-size:16px; line-height:80%;\">Star: Do not respond</p>\n    </div>\n  ","response":null,"exp_stage":"practice","trial_id":"practice_feedback","trial_duration":500,"stimulus_duration":500,"block_num":0,"trial_type":"html-keyboard-response","trial_index":11,"time_elapsed":1373193,"internal_node_id":"0.0-2.0-9.0"},{"rt":null,"stimulus":"<div class = centerbox><div class = fixation>+</div></div>","response":null,"trial_id":"practice_ITI","ITIParams":{"min":0,"max":5,"mean":0.5},"block_num":0,"exp_stage":"practice","trial_type":"html-keyboard-response","trial_index":12,"time_elapsed":1374254,"internal_node_id":"0.0-2.0-10.0","trial_duration":1055.7741503994764,"stimulus_duration":1055.7741503994764},{"rt":252,"response":"y","trial_id":"practice_trial","exp_stage":"practice","trial_duration":1500,"stimulus_duration":1000,"trial_type":"poldracklab-stop-signal","trial_index":13,"time_elapsed":1375760,"internal_node_id":"0.0-2.0-11.0","response_ends_trial":false,"stimulus":"<div class = centerbox><div class = cue-text><img class = center src='/static/experiments/stop_signal_rdoc_practice__fmri/images/circle.png'></img></div></div>","SS_stimulus":"<img class = center src='/static/experiments/stop_signal_rdoc_practice__fmri/images/stopSignal.png'></img>","SS_trial_type":"go","SS_duration":500,"SSD":200,"choices":["y","g"],"stim":"circle","correct_response":"y","current_trial":4,"condition":"go","block_num":0,"correct_trial":1},{"rt":null,"stimulus":"<div class=center-box><div class=center-text><font size = 20>Correct!</font></div></div>\n    <div class=\"prompt_box\">\n      <p class=\"center-block-text\" style=\"font-size:16px; line-height:80%;\">Circle: Index</p>\n      <p class=\"center-block-text\" style=\"font-size:16px; line-height:80%;\">Square: Middle</p>\n      <p class=\"center-block-text\" style=\"font-size:16px; line-height:80%;\">Star: Do not respond</p>\n    </div>\n  ","response":null,"exp_stage":"practice","trial_id":"practice_feedback","trial_duration":500,"stimulus_duration":500,"block_num":0,"trial_type":"html-keyboard-response","trial_index":14,"time_elapsed":1376267,"internal_node_id":"0.0-2.0-12.0"},{"rt":null,"stimulus":"<div class = centerbox><div class = fixation>+</div></div>","response":null,"trial_id":"practice_ITI","ITIParams":{"min":0,"max":5,"mean":0.5},"block_num":0,"exp_stage":"practice","trial_type":"html-keyboard-response","trial_index":15,"time_elapsed":1377827,"internal_node_id":"0.0-2.0-13.0","trial_duration":1554.0733227238115,"stimulus_duration":1554.0733227238115},{"rt":300,"response":"g","trial_id":"practice_trial","exp_stage":"practice","trial_duration":1500,"stimulus_duration":1000,"trial_type":"poldracklab-stop-signal","trial_index":16,"time_elapsed":1379334,"internal_node_id":"0.0-2.0-14.0","response_ends_trial":false,"stimulus":"<div class = centerbox><div class = cue-text><img class = center src='/static/experiments/stop_signal_rdoc_practice__fmri/images/square.png'></img></div></div>","SS_stimulus":"<img class = center src='/static/experiments/stop_signal_rdoc_practice__fmri/images/stopSignal.png'></img>","SS_trial_type":"stop","SS_duration":500,"SSD":200,"choices":["y","g"],"stim":"square","correct_response":"g","current_trial":5,"condition":"stop","block_num":0,"correct_trial":0},{"rt":null,"stimulus":"<div class=center-box><div class=center-text><font size = 20>There was a star</font></div></div>\n    <div class=\"prompt_box\">\n      <p class=\"center-block-text\" style=\"font-size:16px; line-height:80%;\">Circle: Index</p>\n      <p class=\"center-block-text\" style=\"font-size:16px; line-height:80%;\">Square: Middle</p>\n      <p class=\"center-block-text\" style=\"font-size:16px; line-height:80%;\">Star: Do not respond</p>\n    </div>\n  ","response":null,"exp_stage":"practice","trial_id":"practice_feedback","trial_duration":500,"stimulus_duration":500,"block_num":0,"trial_type":"html-keyboard-response","trial_index":17,"time_elapsed":1379839,"internal_node_id":"0.0-2.0-15.0"},{"rt":null,"stimulus":"<div class = centerbox><div class = fixation>+</div></div>","response":null,"trial_id":"practice_ITI","ITIParams":{"min":0,"max":5,"mean":0.5},"block_num":0,"exp_stage":"practice","trial_type":"html-keyboard-response","trial_index":18,"time_elapsed":1380641,"internal_node_id":"0.0-2.0-16.0","trial_duration":800.1625643486134,"stimulus_duration":800.1625643486134},{"rt":345,"response":"g","trial_id":"practice_trial","exp_stage":"practice","trial_duration":1500,"stimulus_duration":1000,"trial_type":"poldracklab-stop-signal","trial_index":19,"time_elapsed":1382147,"internal_node_id":"0.0-2.0-17.0","response_ends_trial":false,"stimulus":"<div class = centerbox><div class = cue-text><img class = center src='/static/experiments/stop_signal_rdoc_practice__fmri/images/square.png'></img></div></div>","SS_stimulus":"<img class = center src='/static/experiments/stop_signal_rdoc_practice__fmri/images/stopSignal.png'></img>","SS_trial_type":"go","SS_duration":500,"SSD":150,"choices":["y","g"],"stim":"square","correct_response":"g","current_trial":6,"condition":"go","block_num":0,"correct_trial":1},{"rt":null,"stimulus":"<div class=center-box><div class=center-text><font size = 20>Correct!</font></div></div>\n    <div class=\"prompt_box\">\n      <p class=\"center-block-text\" style=\"font-size:16px; line-height:80%;\">Circle: Index</p>\n      <p class=\"center-block-text\" style=\"font-size:16px; line-height:80%;\">Square: Middle</p>\n      <p class=\"center-block-text\" style=\"font-size:16px; line-height:80%;\">Star: Do not respond</p>\n    </div>\n  ","response":null,"exp_stage":"practice","trial_id":"practice_feedback","trial_duration":500,"stimulus_duration":500,"block_num":0,"trial_type":"html-keyboard-response","trial_index":20,"time_elapsed":1382653,"internal_node_id":"0.0-2.0-18.0"},{"rt":7739,"stimulus":"<div class = bigbox><div class = picture_box><p class = block-text>\n    <div class=\"centerbox\"><p class = block-text>Please take a short break.</p><p class=\"block-text\">Please try your best to stop to stars.</p></div>\n    </font></p></div></div>","response":" ","trial_id":"practice_feedback","exp_stage":"practice","trial_duration":4000,"block_num":0,"trial_type":"html-keyboard-response","trial_index":21,"time_elapsed":1390395,"internal_node_id":"0.0-2.1-0.1","block_level_feedback":{"stop_signal_respond":{"value":1,"text":"<p class=\"block-text\">Please try your best to stop to stars.</p>"}}},{"rt":615,"stimulus":"<div class = centerbox><div class = fixation>+</div></div>","response":"e","trial_id":"practice_ITI","ITIParams":{"min":0,"max":5,"mean":0.5},"block_num":1,"exp_stage":"practice","trial_type":"html-keyboard-response","trial_index":22,"time_elapsed":1393524,"internal_node_id":"0.0-2.1-1.1","trial_duration":3123.457286123419,"stimulus_duration":3123.457286123419},{"rt":394,"response":"y","trial_id":"practice_trial","exp_stage":"practice","trial_duration":1500,"stimulus_duration":1000,"trial_type":"poldracklab-stop-signal","trial_index":23,"time_elapsed":1395027,"internal_node_id":"0.0-2.1-2.1","response_ends_trial":false,"stimulus":"<div class = centerbox><div class = cue-text><img class = center src='/static/experiments/stop_signal_rdoc_practice__fmri/images/circle.png'></img></div></div>","SS_stimulus":"<img class = center src='/static/experiments/stop_signal_rdoc_practice__fmri/images/stopSignal.png'></img>","SS_trial_type":"go","SS_duration":500,"SSD":150,"choices":["y","g"],"stim":"circle","correct_response":"y","current_trial":1,"condition":"go","block_num":1,"correct_trial":1},{"rt":null,"stimulus":"<div class=center-box><div class=center-text><font size = 20>Correct!</font></div></div>\n    <div class=\"prompt_box\">\n      <p class=\"center-block-text\" style=\"font-size:16px; line-height:80%;\">Circle: Index</p>\n      <p class=\"center-block-text\" style=\"font-size:16px; line-height:80%;\">Square: Middle</p>\n      <p class=\"center-block-text\" style=\"font-size:16px; line-height:80%;\">Star: Do not respond</p>\n    </div>\n  ","response":null,"exp_stage":"practice","trial_id":"practice_feedback","trial_duration":500,"stimulus_duration":500,"block_num":1,"trial_type":"html-keyboard-response","trial_index":24,"time_elapsed":1395530,"internal_node_id":"0.0-2.1-3.1"},{"rt":null,"stimulus":"<div class = centerbox><div class = fixation>+</div></div>","response":null,"trial_id":"practice_ITI","ITIParams":{"min":0,"max":5,"mean":0.5},"block_num":1,"exp_stage":"practice","trial_type":"html-keyboard-response","trial_index":25,"time_elapsed":1398015,"internal_node_id":"0.0-2.1-4.1","trial_duration":2483.756314702613,"stimulus_duration":2483.756314702613},{"rt":325,"response":"g","trial_id":"practice_trial","exp_stage":"practice","trial_duration":1500,"stimulus_duration":1000,"trial_type":"poldracklab-stop-signal","trial_index":26,"time_elapsed":1399539,"internal_node_id":"0.0-2.1-5.1","response_ends_trial":false,"stimulus":"<div class = centerbox><div class = cue-text><img class = center src='/static/experiments/stop_signal_rdoc_practice__fmri/images/square.png'></img></div></div>","SS_stimulus":"<img class = center src='/static/experiments/stop_signal_rdoc_practice__fmri/images/stopSignal.png'></img>","SS_trial_type":"go","SS_duration":500,"SSD":150,"choices":["y","g"],"stim":"square","correct_response":"g","current_trial":2,"condition":"go","block_num":1,"correct_trial":1},{"rt":null,"stimulus":"<div class=center-box><div class=center-text><font size = 20>Correct!</font></div></div>\n    <div class=\"prompt_box\">\n      <p class=\"center-block-text\" style=\"font-size:16px; line-height:80%;\">Circle: Index</p>\n      <p class=\"center-block-text\" style=\"font-size:16px; line-height:80%;\">Square: Middle</p>\n      <p class=\"center-block-text\" style=\"font-size:16px; line-height:80%;\">Star: Do not respond</p>\n    </div>\n  ","response":null,"exp_stage":"practice","trial_id":"practice_feedback","trial_duration":500,"stimulus_duration":500,"block_num":1,"trial_type":"html-keyboard-response","trial_index":27,"time_elapsed":1400042,"internal_node_id":"0.0-2.1-6.1"},{"rt":null,"stimulus":"<div class = centerbox><div class = fixation>+</div></div>","response":null,"trial_id":"practice_ITI","ITIParams":{"min":0,"max":5,"mean":0.5},"block_num":1,"exp_stage":"practice","trial_type":"html-keyboard-response","trial_index":28,"time_elapsed":1401285,"internal_node_id":"0.0-2.1-7.1","trial_duration":1237.2182062224745,"stimulus_duration":1237.2182062224745},{"rt":null,"response":null,"trial_id":"practice_trial","exp_stage":"practice","trial_duration":1500,"stimulus_duration":1000,"trial_type":"poldracklab-stop-signal","trial_index":29,"time_elapsed":1402791,"internal_node_id":"0.0-2.1-8.1","response_ends_trial":false,"stimulus":"<div class = centerbox><div class = cue-text><img class = center src='/static/experiments/stop_signal_rdoc_practice__fmri/images/square.png'></img></div></div>","SS_stimulus":"<img class = center src='/static/experiments/stop_signal_rdoc_practice__fmri/images/stopSignal.png'></img>","SS_trial_type":"stop","SS_duration":500,"SSD":150,"choices":["y","g"],"stim":"square","correct_response":"g","current_trial":3,"condition":"stop","block_num":1,"correct_trial":1},{"rt":null,"stimulus":"<div class=center-box><div class=center-text><font size = 20>Correct!</font></div></div>\n    <div class=\"prompt_box\">\n      <p class=\"center-block-text\" style=\"font-size:16px; line-height:80%;\">Circle: Index</p>\n      <p class=\"center-block-text\" style=\"font-size:16px; line-height:80%;\">Square: Middle</p>\n      <p class=\"center-block-text\" style=\"font-size:16px; line-height:80%;\">Star: Do not respond</p>\n    </div>\n  ","response":null,"exp_stage":"practice","trial_id":"practice_feedback","trial_duration":500,"stimulus_duration":500,"block_num":1,"trial_type":"html-keyboard-response","trial_index":30,"time_elapsed":1403298,"internal_node_id":"0.0-2.1-9.1"},{"rt":null,"stimulus":"<div class = centerbox><div class = fixation>+</div></div>","response":null,"trial_id":"practice_ITI","ITIParams":{"min":0,"max":5,"mean":0.5},"block_num":1,"exp_stage":"practice","trial_type":"html-keyboard-response","trial_index":31,"time_elapsed":1403974,"internal_node_id":"0.0-2.1-10.1","trial_duration":671.8713586197031,"stimulus_duration":671.8713586197031},{"rt":347,"response":"y","trial_id":"practice_trial","exp_stage":"practice","trial_duration":1500,"stimulus_duration":1000,"trial_type":"poldracklab-stop-signal","trial_index":32,"time_elapsed":1405539,"internal_node_id":"0.0-2.1-11.1","response_ends_trial":false,"stimulus":"<div class = centerbox><div class = cue-text><img class = center src='/static/experiments/stop_signal_rdoc_practice__fmri/images/circle.png'></img></div></div>","SS_stimulus":"<img class = center src='/static/experiments/stop_signal_rdoc_practice__fmri/images/stopSignal.png'></img>","SS_trial_type":"go","SS_duration":500,"SSD":200,"choices":["y","g"],"stim":"circle","correct_response":"y","current_trial":4,"condition":"go","block_num":1,"correct_trial":1},{"rt":null,"stimulus":"<div class=center-box><div class=center-text><font size = 20>Correct!</font></div></div>\n    <div class=\"prompt_box\">\n      <p class=\"center-block-text\" style=\"font-size:16px; line-height:80%;\">Circle: Index</p>\n      <p class=\"center-block-text\" style=\"font-size:16px; line-height:80%;\">Square: Middle</p>\n      <p class=\"center-block-text\" style=\"font-size:16px; line-height:80%;\">Star: Do not respond</p>\n    </div>\n  ","response":null,"exp_stage":"practice","trial_id":"practice_feedback","trial_duration":500,"stimulus_duration":500,"block_num":1,"trial_type":"html-keyboard-response","trial_index":33,"time_elapsed":1406045,"internal_node_id":"0.0-2.1-12.1"},{"rt":null,"stimulus":"<div class = centerbox><div class = fixation>+</div></div>","response":null,"trial_id":"practice_ITI","ITIParams":{"min":0,"max":5,"mean":0.5},"block_num":1,"exp_stage":"practice","trial_type":"html-keyboard-response","trial_index":34,"time_elapsed":1408050,"internal_node_id":"0.0-2.1-13.1","trial_duration":1845.7448378650192,"stimulus_duration":1845.7448378650192},{"rt":372,"response":"g","trial_id":"practice_trial","exp_stage":"practice","trial_duration":1500,"stimulus_duration":1000,"trial_type":"poldracklab-stop-signal","trial_index":35,"time_elapsed":1409556,"internal_node_id":"0.0-2.1-14.1","response_ends_trial":false,"stimulus":"<div class = centerbox><div class = cue-text><img class = center src='/static/experiments/stop_signal_rdoc_practice__fmri/images/square.png'></img></div></div>","SS_stimulus":"<img class = center src='/static/experiments/stop_signal_rdoc_practice__fmri/images/stopSignal.png'></img>","SS_trial_type":"go","SS_duration":500,"SSD":200,"choices":["y","g"],"stim":"square","correct_response":"g","current_trial":5,"condition":"go","block_num":1,"correct_trial":1},{"rt":null,"stimulus":"<div class=center-box><div class=center-text><font size = 20>Correct!</font></div></div>\n    <div class=\"prompt_box\">\n      <p class=\"center-block-text\" style=\"font-size:16px; line-height:80%;\">Circle: Index</p>\n      <p class=\"center-block-text\" style=\"font-size:16px; line-height:80%;\">Square: Middle</p>\n      <p class=\"center-block-text\" style=\"font-size:16px; line-height:80%;\">Star: Do not respond</p>\n    </div>\n  ","response":null,"exp_stage":"practice","trial_id":"practice_feedback","trial_duration":500,"stimulus_duration":500,"block_num":1,"trial_type":"html-keyboard-response","trial_index":36,"time_elapsed":1410058,"internal_node_id":"0.0-2.1-15.1"},{"rt":null,"stimulus":"<div class = centerbox><div class = fixation>+</div></div>","response":null,"trial_id":"practice_ITI","ITIParams":{"min":0,"max":5,"mean":0.5},"block_num":1,"exp_stage":"practice","trial_type":"html-keyboard-response","trial_index":37,"time_elapsed":1411094,"internal_node_id":"0.0-2.1-16.1","trial_duration":1031.115651406377,"stimulus_duration":1031.115651406377},{"rt":null,"response":null,"trial_id":"practice_trial","exp_stage":"practice","trial_duration":1500,"stimulus_duration":1000,"trial_type":"poldracklab-stop-signal","trial_index":38,"time_elapsed":1412601,"internal_node_id":"0.0-2.1-17.1","response_ends_trial":false,"stimulus":"<div class = centerbox><div class = cue-text><img class = center src='/static/experiments/stop_signal_rdoc_practice__fmri/images/circle.png'></img></div></div>","SS_stimulus":"<img class = center src='/static/experiments/stop_signal_rdoc_practice__fmri/images/stopSignal.png'></img>","SS_trial_type":"stop","SS_duration":500,"SSD":200,"choices":["y","g"],"stim":"circle","correct_response":"y","current_trial":6,"condition":"stop","block_num":1,"correct_trial":1},{"rt":null,"stimulus":"<div class=center-box><div class=center-text><font size = 20>Correct!</font></div></div>\n    <div class=\"prompt_box\">\n      <p class=\"center-block-text\" style=\"font-size:16px; line-height:80%;\">Circle: Index</p>\n      <p class=\"center-block-text\" style=\"font-size:16px; line-height:80%;\">Square: Middle</p>\n      <p class=\"center-block-text\" style=\"font-size:16px; line-height:80%;\">Star: Do not respond</p>\n    </div>\n  ","response":null,"exp_stage":"practice","trial_id":"practice_feedback","trial_duration":500,"stimulus_duration":500,"block_num":1,"trial_type":"html-keyboard-response","trial_index":39,"time_elapsed":1413107,"internal_node_id":"0.0-2.1-18.1"},{"rt":9901,"stimulus":"<div class = bigbox><div class = picture_box><p class = block-text>\n    <div class=\"centerbox\"><p class = block-text>Please take a short break.</p><p class=\"block-text\">Please respond more quickly without sacrificing accuracy.</p></div>\n    </font></p></div></div>","response":" ","trial_id":"practice_feedback","exp_stage":"practice","trial_duration":4000,"block_num":0,"trial_type":"html-keyboard-response","trial_index":40,"time_elapsed":1423008,"internal_node_id":"0.0-2.2-0.2","block_level_feedback":{"stop_signal_respond":{"value":0,"text":"<p class=\"block-text\">Please respond more quickly without sacrificing accuracy.</p>"}}},{"rt":null,"stimulus":"<div class = centerbox><div class = fixation>+</div></div>","response":null,"trial_id":"practice_ITI","ITIParams":{"min":0,"max":5,"mean":0.5},"block_num":2,"exp_stage":"practice","trial_type":"html-keyboard-response","trial_index":41,"time_elapsed":1423611,"internal_node_id":"0.0-2.2-1.2","trial_duration":596.076343728067,"stimulus_duration":596.076343728067},{"rt":null,"response":null,"trial_id":"practice_trial","exp_stage":"practice","trial_duration":1500,"stimulus_duration":1000,"trial_type":"poldracklab-stop-signal","trial_index":42,"time_elapsed":1425117,"internal_node_id":"0.0-2.2-2.2","response_ends_trial":false,"stimulus":"<div class = centerbox><div class = cue-text><img class = center src='/static/experiments/stop_signal_rdoc_practice__fmri/images/square.png'></img></div></div>","SS_stimulus":"<img class = center src='/static/experiments/stop_signal_rdoc_practice__fmri/images/stopSignal.png'></img>","SS_trial_type":"stop","SS_duration":500,"SSD":250,"choices":["y","g"],"stim":"square","correct_response":"g","current_trial":1,"condition":"stop","block_num":2,"correct_trial":1},{"rt":null,"stimulus":"<div class=center-box><div class=center-text><font size = 20>Correct!</font></div></div>\n    <div class=\"prompt_box\">\n      <p class=\"center-block-text\" style=\"font-size:16px; line-height:80%;\">Circle: Index</p>\n      <p class=\"center-block-text\" style=\"font-size:16px; line-height:80%;\">Square: Middle</p>\n      <p class=\"center-block-text\" style=\"font-size:16px; line-height:80%;\">Star: Do not respond</p>\n    </div>\n  ","response":null,"exp_stage":"practice","trial_id":"practice_feedback","trial_duration":500,"stimulus_duration":500,"block_num":2,"trial_type":"html-keyboard-response","trial_index":43,"time_elapsed":1425622,"internal_node_id":"0.0-2.2-3.2"},{"rt":null,"stimulus":"<div class = centerbox><div class = fixation>+</div></div>","response":null,"trial_id":"practice_ITI","ITIParams":{"min":0,"max":5,"mean":0.5},"block_num":2,"exp_stage":"practice","trial_type":"html-keyboard-response","trial_index":44,"time_elapsed":1426864,"internal_node_id":"0.0-2.2-4.2","trial_duration":1236.4195435009428,"stimulus_duration":1236.4195435009428},{"rt":394,"response":"g","trial_id":"practice_trial","exp_stage":"practice","trial_duration":1500,"stimulus_duration":1000,"trial_type":"poldracklab-stop-signal","trial_index":45,"time_elapsed":1428369,"internal_node_id":"0.0-2.2-5.2","response_ends_trial":false,"stimulus":"<div class = centerbox><div class = cue-text><img class = center src='/static/experiments/stop_signal_rdoc_practice__fmri/images/square.png'></img></div></div>","SS_stimulus":"<img class = center src='/static/experiments/stop_signal_rdoc_practice__fmri/images/stopSignal.png'></img>","SS_trial_type":"go","SS_duration":500,"SSD":300,"choices":["y","g"],"stim":"square","correct_response":"g","current_trial":2,"condition":"go","block_num":2,"correct_trial":1},{"rt":null,"stimulus":"<div class=center-box><div class=center-text><font size = 20>Correct!</font></div></div>\n    <div class=\"prompt_box\">\n      <p class=\"center-block-text\" style=\"font-size:16px; line-height:80%;\">Circle: Index</p>\n      <p class=\"center-block-text\" style=\"font-size:16px; line-height:80%;\">Square: Middle</p>\n      <p class=\"center-block-text\" style=\"font-size:16px; line-height:80%;\">Star: Do not respond</p>\n    </div>\n  ","response":null,"exp_stage":"practice","trial_id":"practice_feedback","trial_duration":500,"stimulus_duration":500,"block_num":2,"trial_type":"html-keyboard-response","trial_index":46,"time_elapsed":1428909,"internal_node_id":"0.0-2.2-6.2"},{"rt":null,"stimulus":"<div class = centerbox><div class = fixation>+</div></div>","response":null,"trial_id":"practice_ITI","ITIParams":{"min":0,"max":5,"mean":0.5},"block_num":2,"exp_stage":"practice","trial_type":"html-keyboard-response","trial_index":47,"time_elapsed":1429717,"internal_node_id":"0.0-2.2-7.2","trial_duration":802.5828545385367,"stimulus_duration":802.5828545385367},{"rt":257,"response":"y","trial_id":"practice_trial","exp_stage":"practice","trial_duration":1500,"stimulus_duration":1000,"trial_type":"poldracklab-stop-signal","trial_index":48,"time_elapsed":1431222,"internal_node_id":"0.0-2.2-8.2","response_ends_trial":false,"stimulus":"<div class = centerbox><div class = cue-text><img class = center src='/static/experiments/stop_signal_rdoc_practice__fmri/images/circle.png'></img></div></div>","SS_stimulus":"<img class = center src='/static/experiments/stop_signal_rdoc_practice__fmri/images/stopSignal.png'></img>","SS_trial_type":"stop","SS_duration":500,"SSD":300,"choices":["y","g"],"stim":"circle","correct_response":"y","current_trial":3,"condition":"stop","block_num":2,"correct_trial":0},{"rt":null,"stimulus":"<div class=center-box><div class=center-text><font size = 20>There was a star</font></div></div>\n    <div class=\"prompt_box\">\n      <p class=\"center-block-text\" style=\"font-size:16px; line-height:80%;\">Circle: Index</p>\n      <p class=\"center-block-text\" style=\"font-size:16px; line-height:80%;\">Square: Middle</p>\n      <p class=\"center-block-text\" style=\"font-size:16px; line-height:80%;\">Star: Do not respond</p>\n    </div>\n  ","response":null,"exp_stage":"practice","trial_id":"practice_feedback","trial_duration":500,"stimulus_duration":500,"block_num":2,"trial_type":"html-keyboard-response","trial_index":49,"time_elapsed":1431724,"internal_node_id":"0.0-2.2-9.2"},{"rt":null,"stimulus":"<div class = centerbox><div class = fixation>+</div></div>","response":null,"trial_id":"practice_ITI","ITIParams":{"min":0,"max":5,"mean":0.5},"block_num":2,"exp_stage":"practice","trial_type":"html-keyboard-response","trial_index":50,"time_elapsed":1433639,"internal_node_id":"0.0-2.2-10.2","trial_duration":1909.7867507705894,"stimulus_duration":1909.7867507705894},{"rt":401,"response":"g","trial_id":"practice_trial","exp_stage":"practice","trial_duration":1500,"stimulus_duration":1000,"trial_type":"poldracklab-stop-signal","trial_index":51,"time_elapsed":1435146,"internal_node_id":"0.0-2.2-11.2","response_ends_trial":false,"stimulus":"<div class = centerbox><div class = cue-text><img class = center src='/static/experiments/stop_signal_rdoc_practice__fmri/images/square.png'></img></div></div>","SS_stimulus":"<img class = center src='/static/experiments/stop_signal_rdoc_practice__fmri/images/stopSignal.png'></img>","SS_trial_type":"go","SS_duration":500,"SSD":250,"choices":["y","g"],"stim":"square","correct_response":"g","current_trial":4,"condition":"go","block_num":2,"correct_trial":1},{"rt":null,"stimulus":"<div class=center-box><div class=center-text><font size = 20>Correct!</font></div></div>\n    <div class=\"prompt_box\">\n      <p class=\"center-block-text\" style=\"font-size:16px; line-height:80%;\">Circle: Index</p>\n      <p class=\"center-block-text\" style=\"font-size:16px; line-height:80%;\">Square: Middle</p>\n      <p class=\"center-block-text\" style=\"font-size:16px; line-height:80%;\">Star: Do not respond</p>\n    </div>\n  ","response":null,"exp_stage":"practice","trial_id":"practice_feedback","trial_duration":500,"stimulus_duration":500,"block_num":2,"trial_type":"html-keyboard-response","trial_index":52,"time_elapsed":1435652,"internal_node_id":"0.0-2.2-12.2"},{"rt":null,"stimulus":"<div class = centerbox><div class = fixation>+</div></div>","response":null,"trial_id":"practice_ITI","ITIParams":{"min":0,"max":5,"mean":0.5},"block_num":2,"exp_stage":"practice","trial_type":"html-keyboard-response","trial_index":53,"time_elapsed":1436764,"internal_node_id":"0.0-2.2-13.2","trial_duration":1108.1604968818942,"stimulus_duration":1108.1604968818942},{"rt":441,"response":"g","trial_id":"practice_trial","exp_stage":"practice","trial_duration":1500,"stimulus_duration":1000,"trial_type":"poldracklab-stop-signal","trial_index":54,"time_elapsed":1438267,"internal_node_id":"0.0-2.2-14.2","response_ends_trial":false,"stimulus":"<div class = centerbox><div class = cue-text><img class = center src='/static/experiments/stop_signal_rdoc_practice__fmri/images/circle.png'></img></div></div>","SS_stimulus":"<img class = center src='/static/experiments/stop_signal_rdoc_practice__fmri/images/stopSignal.png'></img>","SS_trial_type":"go","SS_duration":500,"SSD":250,"choices":["y","g"],"stim":"circle","correct_response":"y","current_trial":5,"condition":"go","block_num":2,"correct_trial":0},{"rt":null,"stimulus":"<div class=center-box><div class=center-text><font size = 20>Incorrect</font></div></div>\n    <div class=\"prompt_box\">\n      <p class=\"center-block-text\" style=\"font-size:16px; line-height:80%;\">Circle: Index</p>\n      <p class=\"center-block-text\" style=\"font-size:16px; line-height:80%;\">Square: Middle</p>\n      <p class=\"center-block-text\" style=\"font-size:16px; line-height:80%;\">Star: Do not respond</p>\n    </div>\n  ","response":null,"exp_stage":"practice","trial_id":"practice_feedback","trial_duration":500,"stimulus_duration":500,"block_num":2,"trial_type":"html-keyboard-response","trial_index":55,"time_elapsed":1438772,"internal_node_id":"0.0-2.2-15.2"},{"rt":null,"stimulus":"<div class = centerbox><div class = fixation>+</div></div>","response":null,"trial_id":"practice_ITI","ITIParams":{"min":0,"max":5,"mean":0.5},"block_num":2,"exp_stage":"practice","trial_type":"html-keyboard-response","trial_index":56,"time_elapsed":1439612,"internal_node_id":"0.0-2.2-16.2","trial_duration":836.6880085410338,"stimulus_duration":836.6880085410338},{"rt":365,"response":"g","trial_id":"practice_trial","exp_stage":"practice","trial_duration":1500,"stimulus_duration":1000,"trial_type":"poldracklab-stop-signal","trial_index":57,"time_elapsed":1441117,"internal_node_id":"0.0-2.2-17.2","response_ends_trial":false,"stimulus":"<div class = centerbox><div class = cue-text><img class = center src='/static/experiments/stop_signal_rdoc_practice__fmri/images/circle.png'></img></div></div>","SS_stimulus":"<img class = center src='/static/experiments/stop_signal_rdoc_practice__fmri/images/stopSignal.png'></img>","SS_trial_type":"go","SS_duration":500,"SSD":250,"choices":["y","g"],"stim":"circle","correct_response":"y","current_trial":6,"condition":"go","block_num":2,"correct_trial":0},{"rt":null,"stimulus":"<div class=center-box><div class=center-text><font size = 20>Incorrect</font></div></div>\n    <div class=\"prompt_box\">\n      <p class=\"center-block-text\" style=\"font-size:16px; line-height:80%;\">Circle: Index</p>\n      <p class=\"center-block-text\" style=\"font-size:16px; line-height:80%;\">Square: Middle</p>\n      <p class=\"center-block-text\" style=\"font-size:16px; line-height:80%;\">Star: Do not respond</p>\n    </div>\n  ","response":null,"exp_stage":"practice","trial_id":"practice_feedback","trial_duration":500,"stimulus_duration":500,"block_num":2,"trial_type":"html-keyboard-response","trial_index":58,"time_elapsed":1441624,"internal_node_id":"0.0-2.2-18.2"},{"rt":14766,"stimulus":"<div class = bigbox><div class = picture_box><p class = block-text>\n    <div class=\"centerbox\"><p class = block-text>Please take a short break.</p><p class=\"block-text\">Your accuracy was low.</p>\n  <ul style=\"text-align:left;\">\n    <li>Circle: Index</li>\n    <li>Square: Middle</li>\n    <li>Star: Do not respond</li>\n  </ul>\n</div>\n    </font></p></div></div>","response":" ","trial_id":"practice_feedback","exp_stage":"practice","trial_duration":4000,"block_num":0,"trial_type":"html-keyboard-response","trial_index":59,"time_elapsed":1456391,"internal_node_id":"0.0-3.0","block_level_feedback":{"accuracy":{"value":0.5,"text":"<p class=\"block-text\">Your accuracy was low.</p>\n  <ul style=\"text-align:left;\">\n    <li>Circle: Index</li>\n    <li>Square: Middle</li>\n    <li>Star: Do not respond</li>\n  </ul>\n"}}},{"rt":null,"stimulus":"\n  <div class=\"centerbox\", style=\"height: 50vh;\">\n    <p class=\"center-block-text\">Thanks for completing this task!</p>\n  </div>","response":null,"trial_id":"end","exp_id":"stop_signal_rdoc_practice__fmri","trial_duration":10000,"trial_type":"html-keyboard-response","trial_index":60,"time_elapsed":1466607,"internal_node_id":"0.0-4.0"},{"success":true,"trial_type":"fullscreen","trial_index":61,"time_elapsed":1468028,"internal_node_id":"0.0-5.0"}]