[{"rt":910495,"response":{"P0_Q0":null,"motor_perm":0,"design_perm":2},"accuracy":[],"trial_type":"survey","trial_index":0,"time_elapsed":910512,"internal_node_id":"0.0-0.0","motor_perm":0,"design_perm":2},{"success":true,"trial_type":"fullscreen","trial_index":1,"time_elapsed":912238,"internal_node_id":"0.0-1.0"},{"rt":175037,"stimulus":"<div class=\"bigbox\"><div class=\"picture_box\"><p class=\"block-text\">\n  <div class=\"centerbox\">\n    <p class=\"block-text\">During this task, you will respond to a sequence of numbers.</p>\n    <p class=\"block-text\">Your response will depend on the current task, which can change each trial. On some trials, you will have to indicate whether the number is <b>odd or even</b>, and on other trials, you will indicate whether the number is <b>higher or lower than 5</b>. Each trial will start with a cue telling you which task to do on that trial.</p>\n    <p class=\"block-text\">The cue before the number will be a word indicating the task. There will be <b>four</b> different cues indicating <b>two</b> different tasks. The cues and tasks are described below:</p>\n    \n  <ul style=\"text-align:left;font-size:24px;\">\n    <li>Index: Odd/High</li>\n    <li>Middle: Even/Low</li>\n  </ul>\n\n    <p class=\"block-text\">We'll start with a practice round. During practice, you will receive feedback and a reminder of the rules. These will be taken out for the test, so make sure you understand the instructions before moving on.</p>\n    \n  <p class=\"block-text\">\n    Try to respond as quickly and accurately as possible.\n  </p>\n\n  </div>\n</p></div></div>","response":" ","trial_id":"practice_feedback","exp_stage":"practice","trial_duration":4000,"block_num":0,"trial_type":"html-keyboard-response","trial_index":2,"time_elapsed":1087277,"internal_node_id":"0.0-2.0-0.0","block_level_feedback":{}},{"trial_id":"set_stims","trial_duration":null,"trial_type":"call-function","trial_index":3,"time_elapsed":1087277,"internal_node_id":"0.0-2.0-1.0"},{"rt":null,"stimulus":"<div class=\"upperbox\">\n              <div class=\"center-text\" style=\"color:white;\">+</div>\n            </div>\n            <div class=\"lowerbox\">\n              <div class=\"fixation\">+</div>\n            </div>","response":null,"trial_id":"practice_ITI","ITIParams":{"min":0.5,"max":5.5,"mean":1},"block_num":0,"exp_stage":"practice","trial_type":"html-keyboard-response","trial_index":4,"time_elapsed":1088957,"internal_node_id":"0.0-2.0-2.0","trial_duration":1674.271494219751,"stimulus_duration":1674.271494219751},{"rt":null,"stimulus":"\n  <div class=\"upperbox\">\n    <div class=\"center-text\" style=\"color:white;\">Magnitude</div>\n  </div>\n  <div class=\"lowerbox\">\n    <div class=\"fixation\">+</div>\n  </div>\n","response":null,"trial_id":"practice_cue","exp_stage":"practice","trial_duration":150,"stimulus_duration":150,"trial_type":"html-keyboard-response","trial_index":5,"time_elapsed":1089113,"internal_node_id":"0.0-2.0-3.0","cue":"Magnitude","stim_number":9,"task":"magnitude","task_condition":"na","cue_condition":"na","condition":"task_na_cue_na","current_trial":0,"correct_response":"y","CTI":150,"block_num":0},{"rt":939,"stimulus":"\n  <div class=\"upperbox\">\n    <div class=\"center-text\" style=\"color:white;\">Magnitude</div>\n  </div>\n  <div class=\"lowerbox\">\n    <div class=\"stim_number\">\n      <div class=\"cue-text\"><img class = center src='/static/experiments/cued_task_switching_rdoc_practice__fmri/images/9.png'></img></div>\n    </div>\n  </div>\n","response":"y","exp_stage":"practice","trial_id":"practice_trial","choices":["y","g"],"trial_duration":1500,"stimulus_duration":1000,"trial_type":"html-keyboard-response","trial_index":6,"time_elapsed":1090621,"internal_node_id":"0.0-2.0-4.0","cue":"Magnitude","stim_number":9,"task":"magnitude","task_condition":"na","cue_condition":"na","condition":"task_na_cue_na","current_trial":0,"correct_response":"y","CTI":150,"block_num":0,"correct_trial":1},{"rt":null,"stimulus":"<div class=center-box><div class=center-text><font size =20>Correct!</font></div></div>","response":null,"exp_stage":"practice","trial_id":"practice_feedback","trial_duration":500,"stimulus_duration":500,"block_num":0,"trial_type":"html-keyboard-response","trial_index":7,"time_elapsed":1091127,"internal_node_id":"0.0-2.0-5.0"},{"trial_id":"set_stims","trial_duration":null,"trial_type":"call-function","trial_index":8,"time_elapsed":1091128,"internal_node_id":"0.0-2.0-6.0"},{"rt":null,"stimulus":"<div class=\"upperbox\">\n              <div class=\"center-text\" style=\"color:white;\">+</div>\n            </div>\n            <div class=\"lowerbox\">\n              <div class=\"fixation\">+</div>\n            </div>","response":null,"trial_id":"practice_ITI","ITIParams":{"min":0.5,"max":5.5,"mean":1},"block_num":0,"exp_stage":"practice","trial_type":"html-keyboard-response","trial_index":9,"time_elapsed":1092125,"internal_node_id":"0.0-2.0-7.0","trial_duration":990.3672086997988,"stimulus_duration":990.3672086997988},{"rt":null,"stimulus":"\n  <div class=\"upperbox\">\n    <div class=\"center-text\" style=\"color:white;\">Parity</div>\n  </div>\n  <div class=\"lowerbox\">\n    <div class=\"fixation\">+</div>\n  </div>\n","response":null,"trial_id":"practice_cue","exp_stage":"practice","trial_duration":150,"stimulus_duration":150,"trial_type":"html-keyboard-response","trial_index":10,"time_elapsed":1092280,"internal_node_id":"0.0-2.0-8.0","cue":"Parity","stim_number":1,"task":"parity","task_condition":"switch","cue_condition":"switch","condition":"task_switch_cue_switch","current_trial":1,"correct_response":"y","CTI":150,"block_num":0},{"rt":988,"stimulus":"\n  <div class=\"upperbox\">\n    <div class=\"center-text\" style=\"color:white;\">Parity</div>\n  </div>\n  <div class=\"lowerbox\">\n    <div class=\"stim_number\">\n      <div class=\"cue-text\"><img class = center src='/static/experiments/cued_task_switching_rdoc_practice__fmri/images/1.png'></img></div>\n    </div>\n  </div>\n","response":"g","exp_stage":"practice","trial_id":"practice_trial","choices":["y","g"],"trial_duration":1500,"stimulus_duration":1000,"trial_type":"html-keyboard-response","trial_index":11,"time_elapsed":1093788,"internal_node_id":"0.0-2.0-9.0","cue":"Parity","stim_number":1,"task":"parity","task_condition":"switch","cue_condition":"switch","condition":"task_switch_cue_switch","current_trial":1,"correct_response":"y","CTI":150,"block_num":0,"correct_trial":0},{"rt":null,"stimulus":"<div class=center-box><div class=center-text><font size =20>Incorrect</font></div></div>","response":null,"exp_stage":"practice","trial_id":"practice_feedback","trial_duration":500,"stimulus_duration":500,"block_num":0,"trial_type":"html-keyboard-response","trial_index":12,"time_elapsed":1094293,"internal_node_id":"0.0-2.0-10.0"},{"trial_id":"set_stims","trial_duration":null,"trial_type":"call-function","trial_index":13,"time_elapsed":1094293,"internal_node_id":"0.0-2.0-11.0"},{"rt":null,"stimulus":"<div class=\"upperbox\">\n              <div class=\"center-text\" style=\"color:white;\">+</div>\n            </div>\n            <div class=\"lowerbox\">\n              <div class=\"fixation\">+</div>\n            </div>","response":null,"trial_id":"practice_ITI","ITIParams":{"min":0.5,"max":5.5,"mean":1},"block_num":0,"exp_stage":"practice","trial_type":"html-keyboard-response","trial_index":14,"time_elapsed":1097576,"internal_node_id":"0.0-2.0-12.0","trial_duration":3277.480227733835,"stimulus_duration":3277.480227733835},{"rt":null,"stimulus":"\n  <div class=\"upperbox\">\n    <div class=\"center-text\" style=\"color:white;\">Odd-Even</div>\n  </div>\n  <div class=\"lowerbox\">\n    <div class=\"fixation\">+</div>\n  </div>\n","response":null,"trial_id":"practice_cue","exp_stage":"practice","trial_duration":150,"stimulus_duration":150,"trial_type":"html-keyboard-response","trial_index":15,"time_elapsed":1097733,"internal_node_id":"0.0-2.0-13.0","cue":"Odd-Even","stim_number":3,"task":"parity","task_condition":"stay","cue_condition":"switch","condition":"task_stay_cue_switch","current_trial":2,"correct_response":"y","CTI":150,"block_num":0},{"rt":null,"stimulus":"\n  <div class=\"upperbox\">\n    <div class=\"center-text\" style=\"color:white;\">Odd-Even</div>\n  </div>\n  <div class=\"lowerbox\">\n    <div class=\"stim_number\">\n      <div class=\"cue-text\"><img class = center src='/static/experiments/cued_task_switching_rdoc_practice__fmri/images/3.png'></img></div>\n    </div>\n  </div>\n","response":null,"exp_stage":"practice","trial_id":"practice_trial","choices":["y","g"],"trial_duration":1500,"stimulus_duration":1000,"trial_type":"html-keyboard-response","trial_index":16,"time_elapsed":1099238,"internal_node_id":"0.0-2.0-14.0","cue":"Odd-Even","stim_number":3,"task":"parity","task_condition":"stay","cue_condition":"switch","condition":"task_stay_cue_switch","current_trial":2,"correct_response":"y","CTI":150,"block_num":0,"correct_trial":0},{"rt":81,"stimulus":"<div class=center-box><div class=center-text><font size =20>Incorrect</font></div></div>","response":"y","exp_stage":"practice","trial_id":"practice_feedback","trial_duration":500,"stimulus_duration":500,"block_num":0,"trial_type":"html-keyboard-response","trial_index":17,"time_elapsed":1099740,"internal_node_id":"0.0-2.0-15.0"},{"trial_id":"set_stims","trial_duration":null,"trial_type":"call-function","trial_index":18,"time_elapsed":1099740,"internal_node_id":"0.0-2.0-16.0"},{"rt":null,"stimulus":"<div class=\"upperbox\">\n              <div class=\"center-text\" style=\"color:white;\">+</div>\n            </div>\n            <div class=\"lowerbox\">\n              <div class=\"fixation\">+</div>\n            </div>","response":null,"trial_id":"practice_ITI","ITIParams":{"min":0.5,"max":5.5,"mean":1},"block_num":0,"exp_stage":"practice","trial_type":"html-keyboard-response","trial_index":19,"time_elapsed":1101747,"internal_node_id":"0.0-2.0-17.0","trial_duration":1932.2514406979537,"stimulus_duration":1932.2514406979537},{"rt":null,"stimulus":"\n  <div class=\"upperbox\">\n    <div class=\"center-text\" style=\"color:white;\">Odd-Even</div>\n  </div>\n  <div class=\"lowerbox\">\n    <div class=\"fixation\">+</div>\n  </div>\n","response":null,"trial_id":"practice_cue","exp_stage":"practice","trial_duration":150,"stimulus_duration":150,"trial_type":"html-keyboard-response","trial_index":20,"time_elapsed":1101903,"internal_node_id":"0.0-2.0-18.0","cue":"Odd-Even","stim_number":6,"task":"parity","task_condition":"stay","cue_condition":"stay","condition":"task_stay_cue_stay","current_trial":3,"correct_response":"g","CTI":150,"block_num":0},{"rt":585,"stimulus":"\n  <div class=\"upperbox\">\n    <div class=\"center-text\" style=\"color:white;\">Odd-Even</div>\n  </div>\n  <div class=\"lowerbox\">\n    <div class=\"stim_number\">\n      <div class=\"cue-text\"><img class = center src='/static/experiments/cued_task_switching_rdoc_practice__fmri/images/6.png'></img></div>\n    </div>\n  </div>\n","response":"g","exp_stage":"practice","trial_id":"practice_trial","choices":["y","g"],"trial_duration":1500,"stimulus_duration":1000,"trial_type":"html-keyboard-response","trial_index":21,"time_elapsed":1103409,"internal_node_id":"0.0-2.0-19.0","cue":"Odd-Even","stim_number":6,"task":"parity","task_condition":"stay","cue_condition":"stay","condition":"task_stay_cue_stay","current_trial":3,"correct_response":"g","CTI":150,"block_num":0,"correct_trial":1},{"rt":null,"stimulus":"<div class=center-box><div class=center-text><font size =20>Correct!</font></div></div>","response":null,"exp_stage":"practice","trial_id":"practice_feedback","trial_duration":500,"stimulus_duration":500,"block_num":0,"trial_type":"html-keyboard-response","trial_index":22,"time_elapsed":1103916,"internal_node_id":"0.0-2.0-20.0"},{"trial_id":"set_stims","trial_duration":null,"trial_type":"call-function","trial_index":23,"time_elapsed":1103916,"internal_node_id":"0.0-2.0-21.0"},{"rt":null,"stimulus":"<div class=\"upperbox\">\n              <div class=\"center-text\" style=\"color:white;\">+</div>\n            </div>\n            <div class=\"lowerbox\">\n              <div class=\"fixation\">+</div>\n            </div>","response":null,"trial_id":"practice_ITI","ITIParams":{"min":0.5,"max":5.5,"mean":1},"block_num":0,"exp_stage":"practice","trial_type":"html-keyboard-response","trial_index":24,"time_elapsed":1107039,"internal_node_id":"0.0-2.0-22.0","trial_duration":3118.322292231992,"stimulus_duration":3118.322292231992},{"rt":null,"stimulus":"\n  <div class=\"upperbox\">\n    <div class=\"center-text\" style=\"color:white;\">High-Low</div>\n  </div>\n  <div class=\"lowerbox\">\n    <div class=\"fixation\">+</div>\n  </div>\n","response":null,"trial_id":"practice_cue","exp_stage":"practice","trial_duration":150,"stimulus_duration":150,"trial_type":"html-keyboard-response","trial_index":25,"time_elapsed":1107195,"internal_node_id":"0.0-2.0-23.0","cue":"High-Low","stim_number":1,"task":"magnitude","task_condition":"switch","cue_condition":"switch","condition":"task_switch_cue_switch","current_trial":4,"correct_response":"g","CTI":150,"block_num":0},{"rt":998,"stimulus":"\n  <div class=\"upperbox\">\n    <div class=\"center-text\" style=\"color:white;\">High-Low</div>\n  </div>\n  <div class=\"lowerbox\">\n    <div class=\"stim_number\">\n      <div class=\"cue-text\"><img class = center src='/static/experiments/cued_task_switching_rdoc_practice__fmri/images/1.png'></img></div>\n    </div>\n  </div>\n","response":"g","exp_stage":"practice","trial_id":"practice_trial","choices":["y","g"],"trial_duration":1500,"stimulus_duration":1000,"trial_type":"html-keyboard-response","trial_index":26,"time_elapsed":1108700,"internal_node_id":"0.0-2.0-24.0","cue":"High-Low","stim_number":1,"task":"magnitude","task_condition":"switch","cue_condition":"switch","condition":"task_switch_cue_switch","current_trial":4,"correct_response":"g","CTI":150,"block_num":0,"correct_trial":1},{"rt":null,"stimulus":"<div class=center-box><div class=center-text><font size =20>Correct!</font></div></div>","response":null,"exp_stage":"practice","trial_id":"practice_feedback","trial_duration":500,"stimulus_duration":500,"block_num":0,"trial_type":"html-keyboard-response","trial_index":27,"time_elapsed":1109207,"internal_node_id":"0.0-2.0-25.0"},{"rt":55477,"stimulus":"<div class=\"bigbox\"><div class=\"picture_box\"><p class=\"block-text\"><div class = centerbox><p class = block-text>Please take a short break.</p>\n          <p class=\"block-text\">Your accuracy was low.</p>\n          \n  <ul style=\"text-align:left;font-size:24px;\">\n    <li>Index: Odd/High</li>\n    <li>Middle: Even/Low</li>\n  </ul>\n\n        \n          <p class=\"block-text\">Please respond more quickly without sacrificing accuracy.</p>\n        \n          <p class=\"block-text\">Respond on every trial.</p>\n        </div></p></div></div>","response":" ","trial_id":"practice_feedback","exp_stage":"practice","trial_duration":4000,"block_num":0,"trial_type":"html-keyboard-response","trial_index":28,"time_elapsed":1164684,"internal_node_id":"0.0-2.1-0.1","block_level_feedback":{"accuracy":{"value":0.6,"text":"\n          <p class=\"block-text\">Your accuracy was low.</p>\n          \n  <ul style=\"text-align:left;font-size:24px;\">\n    <li>Index: Odd/High</li>\n    <li>Middle: Even/Low</li>\n  </ul>\n\n        "},"rt":{"value":877.5,"text":"\n          <p class=\"block-text\">Please respond more quickly without sacrificing accuracy.</p>\n        "},"missed_responses":{"value":0.2,"text":"\n          <p class=\"block-text\">Respond on every trial.</p>\n        "}}},{"trial_id":"set_stims","trial_duration":null,"trial_type":"call-function","trial_index":29,"time_elapsed":1164684,"internal_node_id":"0.0-2.1-1.1"},{"rt":null,"stimulus":"<div class=\"upperbox\">\n              <div class=\"center-text\" style=\"color:white;\">+</div>\n            </div>\n            <div class=\"lowerbox\">\n              <div class=\"fixation\">+</div>\n            </div>","response":null,"trial_id":"practice_ITI","ITIParams":{"min":0.5,"max":5.5,"mean":1},"block_num":0,"exp_stage":"practice","trial_type":"html-keyboard-response","trial_index":30,"time_elapsed":1167411,"internal_node_id":"0.0-2.1-2.1","trial_duration":2725.624863271557,"stimulus_duration":2725.624863271557},{"rt":null,"stimulus":"\n  <div class=\"upperbox\">\n    <div class=\"center-text\" style=\"color:white;\">High-Low</div>\n  </div>\n  <div class=\"lowerbox\">\n    <div class=\"fixation\">+</div>\n  </div>\n","response":null,"trial_id":"practice_cue","exp_stage":"practice","trial_duration":150,"stimulus_duration":150,"trial_type":"html-keyboard-response","trial_index":31,"time_elapsed":1167567,"internal_node_id":"0.0-2.1-3.1","cue":"High-Low","stim_number":2,"task":"magnitude","task_condition":"na","cue_condition":"na","condition":"task_na_cue_na","current_trial":0,"correct_response":"g","CTI":150,"block_num":1},{"rt":725,"stimulus":"\n  <div class=\"upperbox\">\n    <div class=\"center-text\" style=\"color:white;\">High-Low</div>\n  </div>\n  <div class=\"lowerbox\">\n    <div class=\"stim_number\">\n      <div class=\"cue-text\"><img class = center src='/static/experiments/cued_task_switching_rdoc_practice__fmri/images/2.png'></img></div>\n    </div>\n  </div>\n","response":"g","exp_stage":"practice","trial_id":"practice_trial","choices":["y","g"],"trial_duration":1500,"stimulus_duration":1000,"trial_type":"html-keyboard-response","trial_index":32,"time_elapsed":1169073,"internal_node_id":"0.0-2.1-4.1","cue":"High-Low","stim_number":2,"task":"magnitude","task_condition":"na","cue_condition":"na","condition":"task_na_cue_na","current_trial":0,"correct_response":"g","CTI":150,"block_num":1,"correct_trial":1},{"rt":null,"stimulus":"<div class=center-box><div class=center-text><font size =20>Correct!</font></div></div>","response":null,"exp_stage":"practice","trial_id":"practice_feedback","trial_duration":500,"stimulus_duration":500,"block_num":1,"trial_type":"html-keyboard-response","trial_index":33,"time_elapsed":1169579,"internal_node_id":"0.0-2.1-5.1"},{"trial_id":"set_stims","trial_duration":null,"trial_type":"call-function","trial_index":34,"time_elapsed":1169580,"internal_node_id":"0.0-2.1-6.1"},{"rt":null,"stimulus":"<div class=\"upperbox\">\n              <div class=\"center-text\" style=\"color:white;\">+</div>\n            </div>\n            <div class=\"lowerbox\">\n              <div class=\"fixation\">+</div>\n            </div>","response":null,"trial_id":"practice_ITI","ITIParams":{"min":0.5,"max":5.5,"mean":1},"block_num":0,"exp_stage":"practice","trial_type":"html-keyboard-response","trial_index":35,"time_elapsed":1170789,"internal_node_id":"0.0-2.1-7.1","trial_duration":1204.9734258046562,"stimulus_duration":1204.9734258046562},{"rt":null,"stimulus":"\n  <div class=\"upperbox\">\n    <div class=\"center-text\" style=\"color:white;\">Parity</div>\n  </div>\n  <div class=\"lowerbox\">\n    <div class=\"fixation\">+</div>\n  </div>\n","response":null,"trial_id":"practice_cue","exp_stage":"practice","trial_duration":150,"stimulus_duration":150,"trial_type":"html-keyboard-response","trial_index":36,"time_elapsed":1170946,"internal_node_id":"0.0-2.1-8.1","cue":"Parity","stim_number":1,"task":"parity","task_condition":"switch","cue_condition":"switch","condition":"task_switch_cue_switch","current_trial":1,"correct_response":"y","CTI":150,"block_num":1},{"rt":1143,"stimulus":"\n  <div class=\"upperbox\">\n    <div class=\"center-text\" style=\"color:white;\">Parity</div>\n  </div>\n  <div class=\"lowerbox\">\n    <div class=\"stim_number\">\n      <div class=\"cue-text\"><img class = center src='/static/experiments/cued_task_switching_rdoc_practice__fmri/images/1.png'></img></div>\n    </div>\n  </div>\n","response":"y","exp_stage":"practice","trial_id":"practice_trial","choices":["y","g"],"trial_duration":1500,"stimulus_duration":1000,"trial_type":"html-keyboard-response","trial_index":37,"time_elapsed":1172449,"internal_node_id":"0.0-2.1-9.1","cue":"Parity","stim_number":1,"task":"parity","task_condition":"switch","cue_condition":"switch","condition":"task_switch_cue_switch","current_trial":1,"correct_response":"y","CTI":150,"block_num":1,"correct_trial":1},{"rt":null,"stimulus":"<div class=center-box><div class=center-text><font size =20>Correct!</font></div></div>","response":null,"exp_stage":"practice","trial_id":"practice_feedback","trial_duration":500,"stimulus_duration":500,"block_num":1,"trial_type":"html-keyboard-response","trial_index":38,"time_elapsed":1172955,"internal_node_id":"0.0-2.1-10.1"},{"trial_id":"set_stims","trial_duration":null,"trial_type":"call-function","trial_index":39,"time_elapsed":1172955,"internal_node_id":"0.0-2.1-11.1"},{"rt":null,"stimulus":"<div class=\"upperbox\">\n              <div class=\"center-text\" style=\"color:white;\">+</div>\n            </div>\n            <div class=\"lowerbox\">\n              <div class=\"fixation\">+</div>\n            </div>","response":null,"trial_id":"practice_ITI","ITIParams":{"min":0.5,"max":5.5,"mean":1},"block_num":0,"exp_stage":"practice","trial_type":"html-keyboard-response","trial_index":40,"time_elapsed":1174435,"internal_node_id":"0.0-2.1-12.1","trial_duration":1474.5087319742872,"stimulus_duration":1474.5087319742872},{"rt":null,"stimulus":"\n  <div class=\"upperbox\">\n    <div class=\"center-text\" style=\"color:white;\">High-Low</div>\n  </div>\n  <div class=\"lowerbox\">\n    <div class=\"fixation\">+</div>\n  </div>\n","response":null,"trial_id":"practice_cue","exp_stage":"practice","trial_duration":150,"stimulus_duration":150,"trial_type":"html-keyboard-response","trial_index":41,"time_elapsed":1174591,"internal_node_id":"0.0-2.1-13.1","cue":"High-Low","stim_number":2,"task":"magnitude","task_condition":"switch","cue_condition":"switch","condition":"task_switch_cue_switch","current_trial":2,"correct_response":"g","CTI":150,"block_num":1},{"rt":832,"stimulus":"\n  <div class=\"upperbox\">\n    <div class=\"center-text\" style=\"color:white;\">High-Low</div>\n  </div>\n  <div class=\"lowerbox\">\n    <div class=\"stim_number\">\n      <div class=\"cue-text\"><img class = center src='/static/experiments/cued_task_switching_rdoc_practice__fmri/images/2.png'></img></div>\n    </div>\n  </div>\n","response":"g","exp_stage":"practice","trial_id":"practice_trial","choices":["y","g"],"trial_duration":1500,"stimulus_duration":1000,"trial_type":"html-keyboard-response","trial_index":42,"time_elapsed":1176097,"internal_node_id":"0.0-2.1-14.1","cue":"High-Low","stim_number":2,"task":"magnitude","task_condition":"switch","cue_condition":"switch","condition":"task_switch_cue_switch","current_trial":2,"correct_response":"g","CTI":150,"block_num":1,"correct_trial":1},{"rt":null,"stimulus":"<div class=center-box><div class=center-text><font size =20>Correct!</font></div></div>","response":null,"exp_stage":"practice","trial_id":"practice_feedback","trial_duration":500,"stimulus_duration":500,"block_num":1,"trial_type":"html-keyboard-response","trial_index":43,"time_elapsed":1176601,"internal_node_id":"0.0-2.1-15.1"},{"trial_id":"set_stims","trial_duration":null,"trial_type":"call-function","trial_index":44,"time_elapsed":1176601,"internal_node_id":"0.0-2.1-16.1"},{"rt":null,"stimulus":"<div class=\"upperbox\">\n              <div class=\"center-text\" style=\"color:white;\">+</div>\n            </div>\n            <div class=\"lowerbox\">\n              <div class=\"fixation\">+</div>\n            </div>","response":null,"trial_id":"practice_ITI","ITIParams":{"min":0.5,"max":5.5,"mean":1},"block_num":0,"exp_stage":"practice","trial_type":"html-keyboard-response","trial_index":45,"time_elapsed":1177994,"internal_node_id":"0.0-2.1-17.1","trial_duration":1387.3471475982824,"stimulus_duration":1387.3471475982824},{"rt":null,"stimulus":"\n  <div class=\"upperbox\">\n    <div class=\"center-text\" style=\"color:white;\">High-Low</div>\n  </div>\n  <div class=\"lowerbox\">\n    <div class=\"fixation\">+</div>\n  </div>\n","response":null,"trial_id":"practice_cue","exp_stage":"practice","trial_duration":150,"stimulus_duration":150,"trial_type":"html-keyboard-response","trial_index":46,"time_elapsed":1178150,"internal_node_id":"0.0-2.1-18.1","cue":"High-Low","stim_number":9,"task":"magnitude","task_condition":"stay","cue_condition":"stay","condition":"task_stay_cue_stay","current_trial":3,"correct_response":"y","CTI":150,"block_num":1},{"rt":684,"stimulus":"\n  <div class=\"upperbox\">\n    <div class=\"center-text\" style=\"color:white;\">High-Low</div>\n  </div>\n  <div class=\"lowerbox\">\n    <div class=\"stim_number\">\n      <div class=\"cue-text\"><img class = center src='/static/experiments/cued_task_switching_rdoc_practice__fmri/images/9.png'></img></div>\n    </div>\n  </div>\n","response":"y","exp_stage":"practice","trial_id":"practice_trial","choices":["y","g"],"trial_duration":1500,"stimulus_duration":1000,"trial_type":"html-keyboard-response","trial_index":47,"time_elapsed":1179694,"internal_node_id":"0.0-2.1-19.1","cue":"High-Low","stim_number":9,"task":"magnitude","task_condition":"stay","cue_condition":"stay","condition":"task_stay_cue_stay","current_trial":3,"correct_response":"y","CTI":150,"block_num":1,"correct_trial":1},{"rt":null,"stimulus":"<div class=center-box><div class=center-text><font size =20>Correct!</font></div></div>","response":null,"exp_stage":"practice","trial_id":"practice_feedback","trial_duration":500,"stimulus_duration":500,"block_num":1,"trial_type":"html-keyboard-response","trial_index":48,"time_elapsed":1180200,"internal_node_id":"0.0-2.1-20.1"},{"trial_id":"set_stims","trial_duration":null,"trial_type":"call-function","trial_index":49,"time_elapsed":1180200,"internal_node_id":"0.0-2.1-21.1"},{"rt":null,"stimulus":"<div class=\"upperbox\">\n              <div class=\"center-text\" style=\"color:white;\">+</div>\n            </div>\n            <div class=\"lowerbox\">\n              <div class=\"fixation\">+</div>\n            </div>","response":null,"trial_id":"practice_ITI","ITIParams":{"min":0.5,"max":5.5,"mean":1},"block_num":0,"exp_stage":"practice","trial_type":"html-keyboard-response","trial_index":50,"time_elapsed":1181117,"internal_node_id":"0.0-2.1-22.1","trial_duration":911.635311201628,"stimulus_duration":911.635311201628},{"rt":null,"stimulus":"\n  <div class=\"upperbox\">\n    <div class=\"center-text\" style=\"color:white;\">Magnitude</div>\n  </div>\n  <div class=\"lowerbox\">\n    <div class=\"fixation\">+</div>\n  </div>\n","response":null,"trial_id":"practice_cue","exp_stage":"practice","trial_duration":150,"stimulus_duration":150,"trial_type":"html-keyboard-response","trial_index":51,"time_elapsed":1181273,"internal_node_id":"0.0-2.1-23.1","cue":"Magnitude","stim_number":1,"task":"magnitude","task_condition":"stay","cue_condition":"switch","condition":"task_stay_cue_switch","current_trial":4,"correct_response":"g","CTI":150,"block_num":1},{"rt":1186,"stimulus":"\n  <div class=\"upperbox\">\n    <div class=\"center-text\" style=\"color:white;\">Magnitude</div>\n  </div>\n  <div class=\"lowerbox\">\n    <div class=\"stim_number\">\n      <div class=\"cue-text\"><img class = center src='/static/experiments/cued_task_switching_rdoc_practice__fmri/images/1.png'></img></div>\n    </div>\n  </div>\n","response":"g","exp_stage":"practice","trial_id":"practice_trial","choices":["y","g"],"trial_duration":1500,"stimulus_duration":1000,"trial_type":"html-keyboard-response","trial_index":52,"time_elapsed":1182779,"internal_node_id":"0.0-2.1-24.1","cue":"Magnitude","stim_number":1,"task":"magnitude","task_condition":"stay","cue_condition":"switch","condition":"task_stay_cue_switch","current_trial":4,"correct_response":"g","CTI":150,"block_num":1,"correct_trial":1},{"rt":null,"stimulus":"<div class=center-box><div class=center-text><font size =20>Correct!</font></div></div>","response":null,"exp_stage":"practice","trial_id":"practice_feedback","trial_duration":500,"stimulus_duration":500,"block_num":1,"trial_type":"html-keyboard-response","trial_index":53,"time_elapsed":1183285,"internal_node_id":"0.0-2.1-25.1"},{"rt":104114,"stimulus":"<div class=\"bigbox\"><div class=\"picture_box\"><p class=\"block-text\"><div class = centerbox><p class = block-text>Please take a short break.</p>\n          <p class=\"block-text\">Please respond more quickly without sacrificing accuracy.</p>\n        </div></p></div></div>","response":" ","trial_id":"practice_feedback","exp_stage":"practice","trial_duration":4000,"block_num":0,"trial_type":"html-keyboard-response","trial_index":54,"time_elapsed":1287399,"internal_node_id":"0.0-2.2-0.2","block_level_feedback":{"rt":{"value":914,"text":"\n          <p class=\"block-text\">Please respond more quickly without sacrificing accuracy.</p>\n        "}}},{"trial_id":"set_stims","trial_duration":null,"trial_type":"call-function","trial_index":55,"time_elapsed":1287399,"internal_node_id":"0.0-2.2-1.2"},{"rt":null,"stimulus":"<div class=\"upperbox\">\n              <div class=\"center-text\" style=\"color:white;\">+</div>\n            </div>\n            <div class=\"lowerbox\">\n              <div class=\"fixation\">+</div>\n            </div>","response":null,"trial_id":"practice_ITI","ITIParams":{"min":0.5,"max":5.5,"mean":1},"block_num":0,"exp_stage":"practice","trial_type":"html-keyboard-response","trial_index":56,"time_elapsed":1288527,"internal_node_id":"0.0-2.2-2.2","trial_duration":1125.193029580444,"stimulus_duration":1125.193029580444},{"rt":null,"stimulus":"\n  <div class=\"upperbox\">\n    <div class=\"center-text\" style=\"color:white;\">Parity</div>\n  </div>\n  <div class=\"lowerbox\">\n    <div class=\"fixation\">+</div>\n  </div>\n","response":null,"trial_id":"practice_cue","exp_stage":"practice","trial_duration":150,"stimulus_duration":150,"trial_type":"html-keyboard-response","trial_index":57,"time_elapsed":1288683,"internal_node_id":"0.0-2.2-3.2","cue":"Parity","stim_number":3,"task":"parity","task_condition":"na","cue_condition":"na","condition":"task_na_cue_na","current_trial":0,"correct_response":"y","CTI":150,"block_num":2},{"rt":855,"stimulus":"\n  <div class=\"upperbox\">\n    <div class=\"center-text\" style=\"color:white;\">Parity</div>\n  </div>\n  <div class=\"lowerbox\">\n    <div class=\"stim_number\">\n      <div class=\"cue-text\"><img class = center src='/static/experiments/cued_task_switching_rdoc_practice__fmri/images/3.png'></img></div>\n    </div>\n  </div>\n","response":"y","exp_stage":"practice","trial_id":"practice_trial","choices":["y","g"],"trial_duration":1500,"stimulus_duration":1000,"trial_type":"html-keyboard-response","trial_index":58,"time_elapsed":1290186,"internal_node_id":"0.0-2.2-4.2","cue":"Parity","stim_number":3,"task":"parity","task_condition":"na","cue_condition":"na","condition":"task_na_cue_na","current_trial":0,"correct_response":"y","CTI":150,"block_num":2,"correct_trial":1},{"rt":null,"stimulus":"<div class=center-box><div class=center-text><font size =20>Correct!</font></div></div>","response":null,"exp_stage":"practice","trial_id":"practice_feedback","trial_duration":500,"stimulus_duration":500,"block_num":2,"trial_type":"html-keyboard-response","trial_index":59,"time_elapsed":1290692,"internal_node_id":"0.0-2.2-5.2"},{"trial_id":"set_stims","trial_duration":null,"trial_type":"call-function","trial_index":60,"time_elapsed":1290692,"internal_node_id":"0.0-2.2-6.2"},{"rt":null,"stimulus":"<div class=\"upperbox\">\n              <div class=\"center-text\" style=\"color:white;\">+</div>\n            </div>\n            <div class=\"lowerbox\">\n              <div class=\"fixation\">+</div>\n            </div>","response":null,"trial_id":"practice_ITI","ITIParams":{"min":0.5,"max":5.5,"mean":1},"block_num":0,"exp_stage":"practice","trial_type":"html-keyboard-response","trial_index":61,"time_elapsed":1292134,"internal_node_id":"0.0-2.2-7.2","trial_duration":1436.9752043173467,"stimulus_duration":1436.9752043173467},{"rt":null,"stimulus":"\n  <div class=\"upperbox\">\n    <div class=\"center-text\" style=\"color:white;\">Parity</div>\n  </div>\n  <div class=\"lowerbox\">\n    <div class=\"fixation\">+</div>\n  </div>\n","response":null,"trial_id":"practice_cue","exp_stage":"practice","trial_duration":150,"stimulus_duration":150,"trial_type":"html-keyboard-response","trial_index":62,"time_elapsed":1292290,"internal_node_id":"0.0-2.2-8.2","cue":"Parity","stim_number":7,"task":"parity","task_condition":"stay","cue_condition":"stay","condition":"task_stay_cue_stay","current_trial":1,"correct_response":"y","CTI":150,"block_num":2},{"rt":676,"stimulus":"\n  <div class=\"upperbox\">\n    <div class=\"center-text\" style=\"color:white;\">Parity</div>\n  </div>\n  <div class=\"lowerbox\">\n    <div class=\"stim_number\">\n      <div class=\"cue-text\"><img class = center src='/static/experiments/cued_task_switching_rdoc_practice__fmri/images/7.png'></img></div>\n    </div>\n  </div>\n","response":"y","exp_stage":"practice","trial_id":"practice_trial","choices":["y","g"],"trial_duration":1500,"stimulus_duration":1000,"trial_type":"html-keyboard-response","trial_index":63,"time_elapsed":1293796,"internal_node_id":"0.0-2.2-9.2","cue":"Parity","stim_number":7,"task":"parity","task_condition":"stay","cue_condition":"stay","condition":"task_stay_cue_stay","current_trial":1,"correct_response":"y","CTI":150,"block_num":2,"correct_trial":1},{"rt":null,"stimulus":"<div class=center-box><div class=center-text><font size =20>Correct!</font></div></div>","response":null,"exp_stage":"practice","trial_id":"practice_feedback","trial_duration":500,"stimulus_duration":500,"block_num":2,"trial_type":"html-keyboard-response","trial_index":64,"time_elapsed":1294300,"internal_node_id":"0.0-2.2-10.2"},{"trial_id":"set_stims","trial_duration":null,"trial_type":"call-function","trial_index":65,"time_elapsed":1294300,"internal_node_id":"0.0-2.2-11.2"},{"rt":null,"stimulus":"<div class=\"upperbox\">\n              <div class=\"center-text\" style=\"color:white;\">+</div>\n            </div>\n            <div class=\"lowerbox\">\n              <div class=\"fixation\">+</div>\n            </div>","response":null,"trial_id":"practice_ITI","ITIParams":{"min":0.5,"max":5.5,"mean":1},"block_num":0,"exp_stage":"practice","trial_type":"html-keyboard-response","trial_index":66,"time_elapsed":1295628,"internal_node_id":"0.0-2.2-12.2","trial_duration":1325.1843314131977,"stimulus_duration":1325.1843314131977},{"rt":null,"stimulus":"\n  <div class=\"upperbox\">\n    <div class=\"center-text\" style=\"color:white;\">Magnitude</div>\n  </div>\n  <div class=\"lowerbox\">\n    <div class=\"fixation\">+</div>\n  </div>\n","response":null,"trial_id":"practice_cue","exp_stage":"practice","trial_duration":150,"stimulus_duration":150,"trial_type":"html-keyboard-response","trial_index":67,"time_elapsed":1295785,"internal_node_id":"0.0-2.2-13.2","cue":"Magnitude","stim_number":3,"task":"magnitude","task_condition":"switch","cue_condition":"switch","condition":"task_switch_cue_switch","current_trial":2,"correct_response":"g","CTI":150,"block_num":2},{"rt":680,"stimulus":"\n  <div class=\"upperbox\">\n    <div class=\"center-text\" style=\"color:white;\">Magnitude</div>\n  </div>\n  <div class=\"lowerbox\">\n    <div class=\"stim_number\">\n      <div class=\"cue-text\"><img class = center src='/static/experiments/cued_task_switching_rdoc_practice__fmri/images/3.png'></img></div>\n    </div>\n  </div>\n","response":"g","exp_stage":"practice","trial_id":"practice_trial","choices":["y","g"],"trial_duration":1500,"stimulus_duration":1000,"trial_type":"html-keyboard-response","trial_index":68,"time_elapsed":1297290,"internal_node_id":"0.0-2.2-14.2","cue":"Magnitude","stim_number":3,"task":"magnitude","task_condition":"switch","cue_condition":"switch","condition":"task_switch_cue_switch","current_trial":2,"correct_response":"g","CTI":150,"block_num":2,"correct_trial":1},{"rt":null,"stimulus":"<div class=center-box><div class=center-text><font size =20>Correct!</font></div></div>","response":null,"exp_stage":"practice","trial_id":"practice_feedback","trial_duration":500,"stimulus_duration":500,"block_num":2,"trial_type":"html-keyboard-response","trial_index":69,"time_elapsed":1297797,"internal_node_id":"0.0-2.2-15.2"},{"trial_id":"set_stims","trial_duration":null,"trial_type":"call-function","trial_index":70,"time_elapsed":1297797,"internal_node_id":"0.0-2.2-16.2"},{"rt":null,"stimulus":"<div class=\"upperbox\">\n              <div class=\"center-text\" style=\"color:white;\">+</div>\n            </div>\n            <div class=\"lowerbox\">\n              <div class=\"fixation\">+</div>\n            </div>","response":null,"trial_id":"practice_ITI","ITIParams":{"min":0.5,"max":5.5,"mean":1},"block_num":0,"exp_stage":"practice","trial_type":"html-keyboard-response","trial_index":71,"time_elapsed":1299241,"internal_node_id":"0.0-2.2-17.2","trial_duration":1439.5056756868555,"stimulus_duration":1439.5056756868555},{"rt":null,"stimulus":"\n  <div class=\"upperbox\">\n    <div class=\"center-text\" style=\"color:white;\">Odd-Even</div>\n  </div>\n  <div class=\"lowerbox\">\n    <div class=\"fixation\">+</div>\n  </div>\n","response":null,"trial_id":"practice_cue","exp_stage":"practice","trial_duration":150,"stimulus_duration":150,"trial_type":"html-keyboard-response","trial_index":72,"time_elapsed":1299398,"internal_node_id":"0.0-2.2-18.2","cue":"Odd-Even","stim_number":2,"task":"parity","task_condition":"switch","cue_condition":"switch","condition":"task_switch_cue_switch","current_trial":3,"correct_response":"g","CTI":150,"block_num":2},{"rt":831,"stimulus":"\n  <div class=\"upperbox\">\n    <div class=\"center-text\" style=\"color:white;\">Odd-Even</div>\n  </div>\n  <div class=\"lowerbox\">\n    <div class=\"stim_number\">\n      <div class=\"cue-text\"><img class = center src='/static/experiments/cued_task_switching_rdoc_practice__fmri/images/2.png'></img></div>\n    </div>\n  </div>\n","response":"g","exp_stage":"practice","trial_id":"practice_trial","choices":["y","g"],"trial_duration":1500,"stimulus_duration":1000,"trial_type":"html-keyboard-response","trial_index":73,"time_elapsed":1300903,"internal_node_id":"0.0-2.2-19.2","cue":"Odd-Even","stim_number":2,"task":"parity","task_condition":"switch","cue_condition":"switch","condition":"task_switch_cue_switch","current_trial":3,"correct_response":"g","CTI":150,"block_num":2,"correct_trial":1},{"rt":null,"stimulus":"<div class=center-box><div class=center-text><font size =20>Correct!</font></div></div>","response":null,"exp_stage":"practice","trial_id":"practice_feedback","trial_duration":500,"stimulus_duration":500,"block_num":2,"trial_type":"html-keyboard-response","trial_index":74,"time_elapsed":1301410,"internal_node_id":"0.0-2.2-20.2"},{"trial_id":"set_stims","trial_duration":null,"trial_type":"call-function","trial_index":75,"time_elapsed":1301410,"internal_node_id":"0.0-2.2-21.2"},{"rt":null,"stimulus":"<div class=\"upperbox\">\n              <div class=\"center-text\" style=\"color:white;\">+</div>\n            </div>\n            <div class=\"lowerbox\">\n              <div class=\"fixation\">+</div>\n            </div>","response":null,"trial_id":"practice_ITI","ITIParams":{"min":0.5,"max":5.5,"mean":1},"block_num":0,"exp_stage":"practice","trial_type":"html-keyboard-response","trial_index":76,"time_elapsed":1302733,"internal_node_id":"0.0-2.2-22.2","trial_duration":1320.9154601964901,"stimulus_duration":1320.9154601964901},{"rt":null,"stimulus":"\n  <div class=\"upperbox\">\n    <div class=\"center-text\" style=\"color:white;\">Parity</div>\n  </div>\n  <div class=\"lowerbox\">\n    <div class=\"fixation\">+</div>\n  </div>\n","response":null,"trial_id":"practice_cue","exp_stage":"practice","trial_duration":150,"stimulus_duration":150,"trial_type":"html-keyboard-response","trial_index":77,"time_elapsed":1302884,"internal_node_id":"0.0-2.2-23.2","cue":"Parity","stim_number":7,"task":"parity","task_condition":"stay","cue_condition":"switch","condition":"task_stay_cue_switch","current_trial":4,"correct_response":"y","CTI":150,"block_num":2},{"rt":801,"stimulus":"\n  <div class=\"upperbox\">\n    <div class=\"center-text\" style=\"color:white;\">Parity</div>\n  </div>\n  <div class=\"lowerbox\">\n    <div class=\"stim_number\">\n      <div class=\"cue-text\"><img class = center src='/static/experiments/cued_task_switching_rdoc_practice__fmri/images/7.png'></img></div>\n    </div>\n  </div>\n","response":"y","exp_stage":"practice","trial_id":"practice_trial","choices":["y","g"],"trial_duration":1500,"stimulus_duration":1000,"trial_type":"html-keyboard-response","trial_index":78,"time_elapsed":1304390,"internal_node_id":"0.0-2.2-24.2","cue":"Parity","stim_number":7,"task":"parity","task_condition":"stay","cue_condition":"switch","condition":"task_stay_cue_switch","current_trial":4,"correct_response":"y","CTI":150,"block_num":2,"correct_trial":1},{"rt":null,"stimulus":"<div class=center-box><div class=center-text><font size =20>Correct!</font></div></div>","response":null,"exp_stage":"practice","trial_id":"practice_feedback","trial_duration":500,"stimulus_duration":500,"block_num":2,"trial_type":"html-keyboard-response","trial_index":79,"time_elapsed":1304896,"internal_node_id":"0.0-2.2-25.2"},{"rt":20431,"stimulus":"<div class=\"bigbox\"><div class=\"picture_box\"><p class=\"block-text\"><div class = centerbox><p class = block-text>Please take a short break.</p>\n          <p class=\"block-text\">Please respond more quickly without sacrificing accuracy.</p>\n        </div></p></div></div>","response":" ","trial_id":"practice_feedback","exp_stage":"practice","trial_duration":4000,"block_num":0,"trial_type":"html-keyboard-response","trial_index":80,"time_elapsed":1325328,"internal_node_id":"0.0-3.0","block_level_feedback":{"rt":{"value":768.6,"text":"\n          <p class=\"block-text\">Please respond more quickly without sacrificing accuracy.</p>\n        "}}},{"rt":null,"stimulus":"\n  <div class=\"centerbox\" style=\"height: 50vh;\">\n    <p class=\"center-block-text\">Thanks for completing this task!</p>\n  </div>","response":null,"trial_id":"end","exp_id":"cued_task_switching_rdoc__fmri","trial_duration":10000,"trial_type":"html-keyboard-response","trial_index":81,"time_elapsed":1335338,"internal_node_id":"0.0-4.0"},{"success":true,"trial_type":"fullscreen","trial_index":82,"time_elapsed":1336340,"internal_node_id":"0.0-5.0"}]