[{"rt":847483,"response":{"P0_Q0":null,"design_perm":5},"accuracy":[],"trial_type":"survey","trial_index":0,"time_elapsed":847497,"internal_node_id":"0.0-0.0","design_perm":5},{"success":true,"trial_type":"fullscreen","trial_index":1,"time_elapsed":862114,"internal_node_id":"0.0-1.0"},{"rt":56476,"stimulus":"<div class=\"bigbox\"><div class=\"picture_box\"><p class=\"block-text\">\n    <div class=\"centerbox\">\n    <p class=\"block-text\">\n      During this task, on each trial you will see two boxes on the screen, and then a star appear in either the left or right box.\n    </p>\n    <p class=\"block-text\">\n      Your task is to press your <b>index finger</b> if the star appears in the <b>left box</b>, and your <b>middle finger</b> if the star appears in the <b>right box</b>.\n    </p>\n    <p class=\"block-text\">\n      On some trials, one or both of the boxes will be highlighted before the star appears.\n    </p>\n    <p class=\"block-text\">\n      We'll start with a practice round. During practice, you will receive feedback and a reminder of the rules.\n      These will be taken out for the test, so make sure you understand the instructions before moving on.\n    </p>\n    <p class = block-text>Try to respond as quickly and accurately as possible.</p>\n  </div></p></div></div>","response":" ","trial_id":"practice_feedback","exp_stage":"practice","trial_duration":4000,"block_num":0,"trial_type":"html-keyboard-response","trial_index":2,"time_elapsed":918597,"internal_node_id":"0.0-2.0-0.0","block_level_feedback":{}},{"rt":null,"stimulus":"<div class = bigbox><div id=left_box></div></div><div class = bigbox><div id=right_box></div></div><div class = centerbox><div class = fixation style=\"font-size:100px\">+</div></div>","response":null,"trial_id":"practice_ITI","ITIParams":{"min":0,"max":5,"mean":0.5},"block_num":0,"exp_stage":"practice","trial_type":"html-keyboard-response","trial_index":3,"time_elapsed":919981,"internal_node_id":"0.0-2.0-1.0","trial_duration":1378.5463621232948,"stimulus_duration":1378.5463621232948},{"rt":null,"stimulus":"<div class = bigbox><div id=left_box></div></div><div class = bigbox><div id=right_box style=\"border-width:15px\"></div></div><div class = centerbox><div class = fixation style=\"font-size:100px\">+</div></div>","response":null,"trial_id":"practice_cue","exp_stage":"practice","trial_duration":100,"stimulus_duration":100,"trial_type":"html-keyboard-response","trial_index":4,"time_elapsed":920083,"internal_node_id":"0.0-2.0-2.0","block_num":0},{"rt":296,"stimulus":"<div class = bigbox><div id=left_box></div></div><div class = bigbox><div id=right_box></div></div><div class = centerbox><div class = fixation style=\"font-size:100px\">+</div></div>","response":"g","trial_id":"practice_CTI","exp_stage":"practice","trial_type":"html-keyboard-response","trial_index":5,"time_elapsed":920489,"internal_node_id":"0.0-2.0-3.0","block_num":0,"trial_duration":400,"stimulus_duration":400,"CTI_duration":400},{"rt":334,"stimulus":"<div class = bigbox><div id=left_box><div class='center-text star'>*</div></div></div><div class = bigbox><div id=right_box></div></div><div class = centerbox><div class = fixation style=\"font-size:100px\">+</div></div>","response":"y","cue_location":"right","stim_location":"left","condition":"invalid","correct_response":"y","trial_id":"practice_trial","exp_stage":"practice","choices":["y","g"],"trial_duration":1500,"stimulus_duration":1000,"trial_type":"html-keyboard-response","trial_index":6,"time_elapsed":921995,"internal_node_id":"0.0-2.0-4.0","correct_trial":1,"block_num":0},{"rt":null,"stimulus":"<div class=fb_box><div class='center-text'><font size =20>Correct!</font></div></div><div class = bigbox><div id=left_box></div></div><div class = bigbox><div id=right_box></div></div><div class = centerbox><div class = fixation style=\"font-size:100px\">+</div></div>","response":null,"exp_stage":"practice","trial_id":"practice_feedback","trial_duration":500,"stimulus_duration":500,"block_num":0,"trial_type":"html-keyboard-response","trial_index":7,"time_elapsed":922501,"internal_node_id":"0.0-2.0-5.0"},{"rt":null,"stimulus":"<div class = bigbox><div id=left_box></div></div><div class = bigbox><div id=right_box></div></div><div class = centerbox><div class = fixation style=\"font-size:100px\">+</div></div>","response":null,"trial_id":"practice_ITI","ITIParams":{"min":0,"max":5,"mean":0.5},"block_num":0,"exp_stage":"practice","trial_type":"html-keyboard-response","trial_index":8,"time_elapsed":924641,"internal_node_id":"0.0-2.0-6.0","trial_duration":2136.0057859327444,"stimulus_duration":2136.0057859327444},{"rt":null,"stimulus":"<div class = bigbox><div id=left_box style=\"border-width:15px\"></div></div><div class = bigbox><div id=right_box style=\"border-width:15px\"></div></div><div class = centerbox><div class = fixation style=\"font-size:100px\">+</div></div>","response":null,"trial_id":"practice_cue","exp_stage":"practice","trial_duration":100,"stimulus_duration":100,"trial_type":"html-keyboard-response","trial_index":9,"time_elapsed":924747,"internal_node_id":"0.0-2.0-7.0","block_num":0},{"rt":null,"stimulus":"<div class = bigbox><div id=left_box></div></div><div class = bigbox><div id=right_box></div></div><div class = centerbox><div class = fixation style=\"font-size:100px\">+</div></div>","response":null,"trial_id":"practice_CTI","exp_stage":"practice","trial_type":"html-keyboard-response","trial_index":10,"time_elapsed":925153,"internal_node_id":"0.0-2.0-8.0","block_num":0,"trial_duration":400,"stimulus_duration":400,"CTI_duration":400},{"rt":404,"stimulus":"<div class = bigbox><div id=left_box><div class='center-text star'>*</div></div></div><div class = bigbox><div id=right_box></div></div><div class = centerbox><div class = fixation style=\"font-size:100px\">+</div></div>","response":"y","cue_location":"both","stim_location":"left","condition":"doublecue","correct_response":"y","trial_id":"practice_trial","exp_stage":"practice","choices":["y","g"],"trial_duration":1500,"stimulus_duration":1000,"trial_type":"html-keyboard-response","trial_index":11,"time_elapsed":926660,"internal_node_id":"0.0-2.0-9.0","correct_trial":1,"block_num":0},{"rt":null,"stimulus":"<div class=fb_box><div class='center-text'><font size =20>Correct!</font></div></div><div class = bigbox><div id=left_box></div></div><div class = bigbox><div id=right_box></div></div><div class = centerbox><div class = fixation style=\"font-size:100px\">+</div></div>","response":null,"exp_stage":"practice","trial_id":"practice_feedback","trial_duration":500,"stimulus_duration":500,"block_num":0,"trial_type":"html-keyboard-response","trial_index":12,"time_elapsed":927166,"internal_node_id":"0.0-2.0-10.0"},{"rt":null,"stimulus":"<div class = bigbox><div id=left_box></div></div><div class = bigbox><div id=right_box></div></div><div class = centerbox><div class = fixation style=\"font-size:100px\">+</div></div>","response":null,"trial_id":"practice_ITI","ITIParams":{"min":0,"max":5,"mean":0.5},"block_num":0,"exp_stage":"practice","trial_type":"html-keyboard-response","trial_index":13,"time_elapsed":927854,"internal_node_id":"0.0-2.0-11.0","trial_duration":683.0098557305995,"stimulus_duration":683.0098557305995},{"rt":null,"stimulus":"<div class = bigbox><div id=right_box style=\"border-width:15px\"></div></div><div class = bigbox><div id=left_box></div></div><div class = centerbox><div class = fixation style=\"font-size:100px\">+</div></div>","response":null,"trial_id":"practice_cue","exp_stage":"practice","trial_duration":100,"stimulus_duration":100,"trial_type":"html-keyboard-response","trial_index":14,"time_elapsed":927957,"internal_node_id":"0.0-2.0-12.0","block_num":0},{"rt":null,"stimulus":"<div class = bigbox><div id=left_box></div></div><div class = bigbox><div id=right_box></div></div><div class = centerbox><div class = fixation style=\"font-size:100px\">+</div></div>","response":null,"trial_id":"practice_CTI","exp_stage":"practice","trial_type":"html-keyboard-response","trial_index":15,"time_elapsed":928361,"internal_node_id":"0.0-2.0-13.0","block_num":0,"trial_duration":400,"stimulus_duration":400,"CTI_duration":400},{"rt":954,"stimulus":"<div class = bigbox><div id=right_box><div class='center-text star'>*</div></div></div><div class = bigbox><div id=left_box></div></div><div class = centerbox><div class = fixation style=\"font-size:100px\">+</div></div>","response":"g","cue_location":"right","stim_location":"right","condition":"valid","correct_response":"g","trial_id":"practice_trial","exp_stage":"practice","choices":["y","g"],"trial_duration":1500,"stimulus_duration":1000,"trial_type":"html-keyboard-response","trial_index":16,"time_elapsed":929867,"internal_node_id":"0.0-2.0-14.0","correct_trial":1,"block_num":0},{"rt":null,"stimulus":"<div class=fb_box><div class='center-text'><font size =20>Correct!</font></div></div><div class = bigbox><div id=left_box></div></div><div class = bigbox><div id=right_box></div></div><div class = centerbox><div class = fixation style=\"font-size:100px\">+</div></div>","response":null,"exp_stage":"practice","trial_id":"practice_feedback","trial_duration":500,"stimulus_duration":500,"block_num":0,"trial_type":"html-keyboard-response","trial_index":17,"time_elapsed":930373,"internal_node_id":"0.0-2.0-15.0"},{"rt":765,"stimulus":"<div class = bigbox><div id=left_box></div></div><div class = bigbox><div id=right_box></div></div><div class = centerbox><div class = fixation style=\"font-size:100px\">+</div></div>","response":"r","trial_id":"practice_ITI","ITIParams":{"min":0,"max":5,"mean":0.5},"block_num":0,"exp_stage":"practice","trial_type":"html-keyboard-response","trial_index":18,"time_elapsed":932307,"internal_node_id":"0.0-2.0-16.0","trial_duration":1932.9302174155591,"stimulus_duration":1932.9302174155591},{"rt":null,"stimulus":"<div class = bigbox><div id=left_box></div></div><div class = bigbox><div id=right_box></div></div><div class = centerbox><div class = fixation style=\"font-size:100px\">+</div></div>","response":null,"trial_id":"practice_cue","exp_stage":"practice","trial_duration":100,"stimulus_duration":100,"trial_type":"html-keyboard-response","trial_index":19,"time_elapsed":932413,"internal_node_id":"0.0-2.0-17.0","block_num":0},{"rt":null,"stimulus":"<div class = bigbox><div id=left_box></div></div><div class = bigbox><div id=right_box></div></div><div class = centerbox><div class = fixation style=\"font-size:100px\">+</div></div>","response":null,"trial_id":"practice_CTI","exp_stage":"practice","trial_type":"html-keyboard-response","trial_index":20,"time_elapsed":932860,"internal_node_id":"0.0-2.0-18.0","block_num":0,"trial_duration":400,"stimulus_duration":400,"CTI_duration":400},{"rt":478,"stimulus":"<div class = bigbox><div id=left_box><div class='center-text star'>*</div></div></div><div class = bigbox><div id=right_box></div></div><div class = centerbox><div class = fixation style=\"font-size:100px\">+</div></div>","response":"y","cue_location":"none","stim_location":"left","condition":"nocue","correct_response":"y","trial_id":"practice_trial","exp_stage":"practice","choices":["y","g"],"trial_duration":1500,"stimulus_duration":1000,"trial_type":"html-keyboard-response","trial_index":21,"time_elapsed":934362,"internal_node_id":"0.0-2.0-19.0","correct_trial":1,"block_num":0},{"rt":null,"stimulus":"<div class=fb_box><div class='center-text'><font size =20>Correct!</font></div></div><div class = bigbox><div id=left_box></div></div><div class = bigbox><div id=right_box></div></div><div class = centerbox><div class = fixation style=\"font-size:100px\">+</div></div>","response":null,"exp_stage":"practice","trial_id":"practice_feedback","trial_duration":500,"stimulus_duration":500,"block_num":0,"trial_type":"html-keyboard-response","trial_index":22,"time_elapsed":934868,"internal_node_id":"0.0-2.0-20.0"},{"rt":32516,"stimulus":"<div class=\"bigbox\"><div class=\"picture_box\"><p class=\"block-text\"><div class = centerbox><p class = block-text>Please take a short break.</p></div></p></div></div>","response":" ","trial_id":"practice_feedback","exp_stage":"practice","trial_duration":4000,"block_num":0,"trial_type":"html-keyboard-response","trial_index":23,"time_elapsed":967384,"internal_node_id":"0.0-3.0","block_level_feedback":{}},{"rt":null,"stimulus":"\n  <div class=\"centerbox\">\n    <p class=\"center-block-text\">Thanks for completing this task!</p>\n  </div>","response":null,"trial_id":"end","exp_id":"spatial_cueing_rdoc_practice__fmri","trial_duration":10000,"trial_type":"html-keyboard-response","trial_index":24,"time_elapsed":977903,"internal_node_id":"0.0-4.0"},{"success":true,"trial_type":"fullscreen","trial_index":25,"time_elapsed":978910,"internal_node_id":"0.0-5.0"}]