[{"rt":1452656,"response":{"P0_Q0":null,"motor_perm":1,"design_perm":4},"accuracy":[],"trial_type":"survey","trial_index":0,"time_elapsed":1452664,"internal_node_id":"0.0-0.0","motor_perm":1,"design_perm":4},{"success":true,"trial_type":"fullscreen","trial_index":1,"time_elapsed":1460436,"internal_node_id":"0.0-1.0"},{"rt":59134,"stimulus":"<div class=\"bigbox\"><div class=\"picture_box\"><p class=\"block-text\">\n  <div class = centerbox>\n    <p class = block-text>During this task, on each trial you will see a letter presented, a short break, and then a second letter. For instance, you may see an \"A\" followed by an \"F\".</p>\n    <p class = block-text>If the first letter was an \"A\" <b>AND</b> the second letter is an \"X\", press your <b>middle finger</b>. Otherwise, press your <b>index finger</b>.</p>\n     <p class = block-text>We'll start with a practice round. During practice, you will receive feedback and a reminder of the rules. These will be taken out for the test, so make sure you understand the instructions before moving on.</p>\n    <p class = block-text>Remember, press your <b>middle finger</b> after you see \"A\" followed by an \"X\", and your <b>index finger</b> for all other combinations.</p>\n    \n  <p class = block-text>\n    Try to respond as quickly and accurately as possible.\n  </p>\n\n  </div>\n</p></div></div>","response":" ","trial_id":"practice_feedback","exp_stage":"practice","block_num":0,"trial_type":"html-keyboard-response","trial_index":2,"time_elapsed":1519571,"internal_node_id":"0.0-2.0-0.0","block_level_feedback":{}},{"trial_type":"call-function","trial_index":3,"time_elapsed":1519571,"internal_node_id":"0.0-2.0-1.0"},{"rt":null,"stimulus":"<div class = centerbox><div class = fixation>+</div></div>","response":null,"trial_id":"practice_ITI","ITIParams":{"min":0.5,"max":5.5,"mean":1},"block_num":0,"exp_stage":"practice","trial_type":"html-keyboard-response","trial_index":4,"time_elapsed":1520400,"internal_node_id":"0.0-2.0-2.0","trial_duration":823.9520853910492,"stimulus_duration":823.9520853910492},{"rt":null,"stimulus":"<div class = centerbox><div class = AX_text>A</div></div>","response":null,"trial_id":"practice_cue","exp_stage":"practice","condition":"AX","trial_duration":500,"stimulus_duration":500,"block_num":0,"trial_type":"html-keyboard-response","trial_index":5,"time_elapsed":1520906,"internal_node_id":"0.0-2.0-3.0","cue_letter":"A"},{"rt":null,"stimulus":"<div class = centerbox><div class = fixation>+</div></div>","response":null,"trial_id":"practice_inter-stimulus","exp_stage":"practice","trial_duration":3000,"stimulus_duration":3000,"block_num":0,"trial_type":"html-keyboard-response","trial_index":6,"time_elapsed":1523913,"internal_node_id":"0.0-2.0-4.0","delay_ms":3000},{"rt":143,"stimulus":"<div class = centerbox><div class = AX_text>X</div></div>","response":"y","trial_id":"practice_trial","exp_stage":"practice","condition":"AX","choices":["g","y"],"trial_duration":1500,"stimulus_duration":1000,"correct_response":"g","block_num":0,"trial_type":"html-keyboard-response","trial_index":7,"time_elapsed":1525419,"internal_node_id":"0.0-2.0-5.0","correct_trial":0,"probe_letter":"X"},{"rt":null,"stimulus":"<div class=center-box><div class=center-text><font size =20>Incorrect</font></div></div>","response":null,"exp_stage":"practice","trial_id":"practice_feedback","trial_duration":500,"stimulus_duration":500,"block_num":0,"trial_type":"html-keyboard-response","trial_index":8,"time_elapsed":1525922,"internal_node_id":"0.0-2.0-6.0"},{"trial_type":"call-function","trial_index":9,"time_elapsed":1525922,"internal_node_id":"0.0-2.0-7.0"},{"rt":null,"stimulus":"<div class = centerbox><div class = fixation>+</div></div>","response":null,"trial_id":"practice_ITI","ITIParams":{"min":0.5,"max":5.5,"mean":1},"block_num":0,"exp_stage":"practice","trial_type":"html-keyboard-response","trial_index":10,"time_elapsed":1528095,"internal_node_id":"0.0-2.0-8.0","trial_duration":2167.7025449538332,"stimulus_duration":2167.7025449538332},{"rt":null,"stimulus":"<div class=\"centerbox\"><div class=\"AX_text\">E</div></div>","response":null,"trial_id":"practice_cue","exp_stage":"practice","condition":"BY","trial_duration":500,"stimulus_duration":500,"block_num":0,"trial_type":"html-keyboard-response","trial_index":11,"time_elapsed":1528601,"internal_node_id":"0.0-2.0-9.0","cue_letter":"E"},{"rt":2369,"stimulus":"<div class = centerbox><div class = fixation>+</div></div>","response":"y","trial_id":"practice_inter-stimulus","exp_stage":"practice","trial_duration":3000,"stimulus_duration":3000,"block_num":0,"trial_type":"html-keyboard-response","trial_index":12,"time_elapsed":1531607,"internal_node_id":"0.0-2.0-10.0","delay_ms":3000},{"rt":527,"stimulus":"<div class=\"centerbox\"><div class=\"AX_text\">L</div></div>","response":"y","trial_id":"practice_trial","exp_stage":"practice","condition":"BY","choices":["g","y"],"trial_duration":1500,"stimulus_duration":1000,"correct_response":"y","block_num":0,"trial_type":"html-keyboard-response","trial_index":13,"time_elapsed":1533109,"internal_node_id":"0.0-2.0-11.0","correct_trial":1,"probe_letter":"L"},{"rt":null,"stimulus":"<div class=center-box><div class=center-text><font size =20>Correct!</font></div></div>","response":null,"exp_stage":"practice","trial_id":"practice_feedback","trial_duration":500,"stimulus_duration":500,"block_num":0,"trial_type":"html-keyboard-response","trial_index":14,"time_elapsed":1533616,"internal_node_id":"0.0-2.0-12.0"},{"trial_type":"call-function","trial_index":15,"time_elapsed":1533616,"internal_node_id":"0.0-2.0-13.0"},{"rt":null,"stimulus":"<div class = centerbox><div class = fixation>+</div></div>","response":null,"trial_id":"practice_ITI","ITIParams":{"min":0.5,"max":5.5,"mean":1},"block_num":0,"exp_stage":"practice","trial_type":"html-keyboard-response","trial_index":16,"time_elapsed":1534397,"internal_node_id":"0.0-2.0-14.0","trial_duration":775.066584188754,"stimulus_duration":775.066584188754},{"rt":null,"stimulus":"<div class = centerbox><div class = AX_text>A</div></div>","response":null,"trial_id":"practice_cue","exp_stage":"practice","condition":"AY","trial_duration":500,"stimulus_duration":500,"block_num":0,"trial_type":"html-keyboard-response","trial_index":17,"time_elapsed":1534902,"internal_node_id":"0.0-2.0-15.0","cue_letter":"A"},{"rt":null,"stimulus":"<div class = centerbox><div class = fixation>+</div></div>","response":null,"trial_id":"practice_inter-stimulus","exp_stage":"practice","trial_duration":3000,"stimulus_duration":3000,"block_num":0,"trial_type":"html-keyboard-response","trial_index":18,"time_elapsed":1537909,"internal_node_id":"0.0-2.0-16.0","delay_ms":3000},{"rt":900,"stimulus":"<div class=\"centerbox\"><div class=\"AX_text\">D</div></div>","response":"y","trial_id":"practice_trial","exp_stage":"practice","condition":"AY","choices":["g","y"],"trial_duration":1500,"stimulus_duration":1000,"correct_response":"y","block_num":0,"trial_type":"html-keyboard-response","trial_index":19,"time_elapsed":1539414,"internal_node_id":"0.0-2.0-17.0","correct_trial":1,"probe_letter":"D"},{"rt":null,"stimulus":"<div class=center-box><div class=center-text><font size =20>Correct!</font></div></div>","response":null,"exp_stage":"practice","trial_id":"practice_feedback","trial_duration":500,"stimulus_duration":500,"block_num":0,"trial_type":"html-keyboard-response","trial_index":20,"time_elapsed":1539920,"internal_node_id":"0.0-2.0-18.0"},{"trial_type":"call-function","trial_index":21,"time_elapsed":1539921,"internal_node_id":"0.0-2.0-19.0"},{"rt":null,"stimulus":"<div class = centerbox><div class = fixation>+</div></div>","response":null,"trial_id":"practice_ITI","ITIParams":{"min":0.5,"max":5.5,"mean":1},"block_num":0,"exp_stage":"practice","trial_type":"html-keyboard-response","trial_index":22,"time_elapsed":1544740,"internal_node_id":"0.0-2.0-20.0","trial_duration":4814.778425810617,"stimulus_duration":4814.778425810617},{"rt":null,"stimulus":"<div class = centerbox><div class = AX_text>A</div></div>","response":null,"trial_id":"practice_cue","exp_stage":"practice","condition":"AX","trial_duration":500,"stimulus_duration":500,"block_num":0,"trial_type":"html-keyboard-response","trial_index":23,"time_elapsed":1545246,"internal_node_id":"0.0-2.0-21.0","cue_letter":"A"},{"rt":null,"stimulus":"<div class = centerbox><div class = fixation>+</div></div>","response":null,"trial_id":"practice_inter-stimulus","exp_stage":"practice","trial_duration":3000,"stimulus_duration":3000,"block_num":0,"trial_type":"html-keyboard-response","trial_index":24,"time_elapsed":1548252,"internal_node_id":"0.0-2.0-22.0","delay_ms":3000},{"rt":456,"stimulus":"<div class = centerbox><div class = AX_text>X</div></div>","response":"g","trial_id":"practice_trial","exp_stage":"practice","condition":"AX","choices":["g","y"],"trial_duration":1500,"stimulus_duration":1000,"correct_response":"g","block_num":0,"trial_type":"html-keyboard-response","trial_index":25,"time_elapsed":1549757,"internal_node_id":"0.0-2.0-23.0","correct_trial":1,"probe_letter":"X"},{"rt":null,"stimulus":"<div class=center-box><div class=center-text><font size =20>Correct!</font></div></div>","response":null,"exp_stage":"practice","trial_id":"practice_feedback","trial_duration":500,"stimulus_duration":500,"block_num":0,"trial_type":"html-keyboard-response","trial_index":26,"time_elapsed":1550263,"internal_node_id":"0.0-2.0-24.0"},{"trial_type":"call-function","trial_index":27,"time_elapsed":1550263,"internal_node_id":"0.0-2.0-25.0"},{"rt":null,"stimulus":"<div class = centerbox><div class = fixation>+</div></div>","response":null,"trial_id":"practice_ITI","ITIParams":{"min":0.5,"max":5.5,"mean":1},"block_num":0,"exp_stage":"practice","trial_type":"html-keyboard-response","trial_index":28,"time_elapsed":1552893,"internal_node_id":"0.0-2.0-26.0","trial_duration":2624.0091872776065,"stimulus_duration":2624.0091872776065},{"rt":null,"stimulus":"<div class=\"centerbox\"><div class=\"AX_text\">L</div></div>","response":null,"trial_id":"practice_cue","exp_stage":"practice","condition":"BX","trial_duration":500,"stimulus_duration":500,"block_num":0,"trial_type":"html-keyboard-response","trial_index":29,"time_elapsed":1553400,"internal_node_id":"0.0-2.0-27.0","cue_letter":"L"},{"rt":null,"stimulus":"<div class = centerbox><div class = fixation>+</div></div>","response":null,"trial_id":"practice_inter-stimulus","exp_stage":"practice","trial_duration":3000,"stimulus_duration":3000,"block_num":0,"trial_type":"html-keyboard-response","trial_index":30,"time_elapsed":1556406,"internal_node_id":"0.0-2.0-28.0","delay_ms":3000},{"rt":267,"stimulus":"<div class = centerbox><div class = AX_text>X</div></div>","response":"y","trial_id":"practice_trial","exp_stage":"practice","condition":"BX","choices":["g","y"],"trial_duration":1500,"stimulus_duration":1000,"correct_response":"y","block_num":0,"trial_type":"html-keyboard-response","trial_index":31,"time_elapsed":1557911,"internal_node_id":"0.0-2.0-29.0","correct_trial":1,"probe_letter":"X"},{"rt":null,"stimulus":"<div class=center-box><div class=center-text><font size =20>Correct!</font></div></div>","response":null,"exp_stage":"practice","trial_id":"practice_feedback","trial_duration":500,"stimulus_duration":500,"block_num":0,"trial_type":"html-keyboard-response","trial_index":32,"time_elapsed":1558413,"internal_node_id":"0.0-2.0-30.0"},{"rt":5604,"stimulus":"<div class=\"bigbox\"><div class=\"picture_box\"><p class=\"block-text\"><div class = centerbox><p class = block-text>Please take a short break.</p></div></p></div></div>","response":" ","trial_id":"practice_feedback","exp_stage":"practice","block_num":0,"trial_type":"html-keyboard-response","trial_index":33,"time_elapsed":1564019,"internal_node_id":"0.0-3.0","block_level_feedback":{}},{"rt":null,"stimulus":"\n  <div class=\"centerbox\" style=\"height: 50vh;\">\n    <p class=\"center-block-text\">Thanks for completing this task!</p>\n  </div>","response":null,"trial_id":"end","exp_id":"ax_cpt_rdoc_practice__fmri","trial_duration":10000,"trial_type":"html-keyboard-response","trial_index":34,"time_elapsed":1574294,"internal_node_id":"0.0-4.0"},{"success":true,"trial_type":"fullscreen","trial_index":35,"time_elapsed":1575298,"internal_node_id":"0.0-5.0"}]