[{"rt":5161429,"response":{"P0_Q0":null,"motor_perm":0,"design_perm":5},"accuracy":[],"trial_type":"survey","trial_index":0,"time_elapsed":5161415,"internal_node_id":"0.0-0.0","motor_perm":0,"design_perm":5},{"success":true,"trial_type":"fullscreen","trial_index":1,"time_elapsed":5164384,"internal_node_id":"0.0-1.0"},{"rt":712,"stimulus":"<div><h1>Please press the left button.</h1></div>","response":"g","trial_id":"check_left_button","trial_type":"html-keyboard-response","trial_index":2,"time_elapsed":5165101,"internal_node_id":"0.0-2.0-0.0"},{"rt":367,"stimulus":"<div><h1>Please press the right button.</h1></div>","response":"b","trial_id":"check_right_button","trial_type":"html-keyboard-response","trial_index":3,"time_elapsed":5165975,"internal_node_id":"0.0-2.0-1.0"},{"rt":9287,"stimulus":"<div class=\"bigbox\"><div class=\"picture_box\"><p class=\"block-text\">\n  <div style='height: 85vh !important; display:flex; flex-direction:column; justify-content: center;' class=\"centerbox\">\n    <p class=\"block-text\">\n      During this task, you will first encounter an 8x8 grid filled with black and gray cells. \n      Press the <b>left button</b> for <b>symmetric</b> and press the <b>right button</b> for <b>asymmetric</b>.\n    </p>\n    <p class=\"block-text\">\n      When you make a response, a new 8x8 grid will appear, and you should complete as many correct symmetry judgments as you can.\n    </p>\n  </div>\n</p></div></div>","response":" ","trial_id":"practice_feedback","exp_stage":"practice","trial_duration":4000,"block_num":0,"trial_type":"html-keyboard-response","trial_index":4,"time_elapsed":5175768,"internal_node_id":"0.0-3.0-0.0","block_level_feedback":{}},{"rt":992,"stimulus":"<div class=\"container\"><div class=\"distractor-box active-box\"></div><div class=\"distractor-box active-box\"></div><div class=\"distractor-box\"></div><div class=\"distractor-box\"></div><div class=\"distractor-box\"></div><div class=\"distractor-box\"></div><div class=\"distractor-box active-box\"></div><div class=\"distractor-box active-box\"></div><div class=\"distractor-box\"></div><div class=\"distractor-box\"></div><div class=\"distractor-box active-box\"></div><div class=\"distractor-box active-box\"></div><div class=\"distractor-box active-box\"></div><div class=\"distractor-box active-box\"></div><div class=\"distractor-box\"></div><div class=\"distractor-box\"></div><div class=\"distractor-box\"></div><div class=\"distractor-box\"></div><div class=\"distractor-box active-box\"></div><div class=\"distractor-box\"></div><div class=\"distractor-box\"></div><div class=\"distractor-box active-box\"></div><div class=\"distractor-box\"></div><div class=\"distractor-box\"></div><div class=\"distractor-box\"></div><div class=\"distractor-box active-box\"></div><div class=\"distractor-box\"></div><div class=\"distractor-box\"></div><div class=\"distractor-box\"></div><div class=\"distractor-box\"></div><div class=\"distractor-box active-box\"></div><div class=\"distractor-box\"></div><div class=\"distractor-box active-box\"></div><div class=\"distractor-box\"></div><div class=\"distractor-box\"></div><div class=\"distractor-box active-box\"></div><div class=\"distractor-box active-box\"></div><div class=\"distractor-box\"></div><div class=\"distractor-box\"></div><div class=\"distractor-box active-box\"></div><div class=\"distractor-box active-box\"></div><div class=\"distractor-box\"></div><div class=\"distractor-box active-box\"></div><div class=\"distractor-box\"></div><div class=\"distractor-box\"></div><div class=\"distractor-box active-box\"></div><div class=\"distractor-box\"></div><div class=\"distractor-box active-box\"></div><div class=\"distractor-box active-box\"></div><div class=\"distractor-box\"></div><div class=\"distractor-box active-box\"></div><div class=\"distractor-box active-box\"></div><div class=\"distractor-box active-box\"></div><div class=\"distractor-box active-box\"></div><div class=\"distractor-box\"></div><div class=\"distractor-box active-box\"></div><div class=\"distractor-box\"></div><div class=\"distractor-box\"></div><div class=\"distractor-box\"></div><div class=\"distractor-box active-box\"></div><div class=\"distractor-box active-box\"></div><div class=\"distractor-box\"></div><div class=\"distractor-box\"></div><div class=\"distractor-box\"></div></div>","response":"g","trial_id":"practice_inter-stimulus","exp_stage":"practice","condition":"operation_only","trial_duration":2500,"stimulus_duration":2500,"block_num":0,"choices":["b","y","g","r","e"],"trial_type":"html-keyboard-response","trial_index":5,"time_elapsed":5176764,"internal_node_id":"0.0-3.0-1.0-0.0","order_and_color_of_processing_boxes":["black","black","gray","gray","gray","gray","black","black","gray","gray","black","black","black","black","gray","gray","gray","gray","black","gray","gray","black","gray","gray","gray","black","gray","gray","gray","gray","black","gray","black","gray","gray","black","black","gray","gray","black","black","gray","black","gray","gray","black","gray","black","black","gray","black","black","black","black","gray","black","gray","gray","gray","black","black","gray","gray","gray"],"correct_spatial_judgement_key":"g","grid_symmetry":"symmetric","correct_trial":1},{"rt":622,"stimulus":"<div class=\"container\"><div class=\"distractor-box\"></div><div class=\"distractor-box\"></div><div class=\"distractor-box active-box\"></div><div class=\"distractor-box active-box\"></div><div class=\"distractor-box active-box\"></div><div class=\"distractor-box active-box\"></div><div class=\"distractor-box\"></div><div class=\"distractor-box\"></div><div class=\"distractor-box active-box\"></div><div class=\"distractor-box active-box\"></div><div class=\"distractor-box active-box\"></div><div class=\"distractor-box active-box\"></div><div class=\"distractor-box active-box\"></div><div class=\"distractor-box active-box\"></div><div class=\"distractor-box active-box\"></div><div class=\"distractor-box active-box\"></div><div class=\"distractor-box active-box\"></div><div class=\"distractor-box\"></div><div class=\"distractor-box active-box\"></div><div class=\"distractor-box active-box\"></div><div class=\"distractor-box active-box\"></div><div class=\"distractor-box active-box\"></div><div class=\"distractor-box\"></div><div class=\"distractor-box active-box\"></div><div class=\"distractor-box active-box\"></div><div class=\"distractor-box\"></div><div class=\"distractor-box active-box\"></div><div class=\"distractor-box\"></div><div class=\"distractor-box\"></div><div class=\"distractor-box active-box\"></div><div class=\"distractor-box\"></div><div class=\"distractor-box active-box\"></div><div class=\"distractor-box active-box\"></div><div class=\"distractor-box\"></div><div class=\"distractor-box active-box\"></div><div class=\"distractor-box\"></div><div class=\"distractor-box\"></div><div class=\"distractor-box active-box\"></div><div class=\"distractor-box\"></div><div class=\"distractor-box active-box\"></div><div class=\"distractor-box\"></div><div class=\"distractor-box active-box\"></div><div class=\"distractor-box active-box\"></div><div class=\"distractor-box\"></div><div class=\"distractor-box\"></div><div class=\"distractor-box active-box\"></div><div class=\"distractor-box active-box\"></div><div class=\"distractor-box\"></div><div class=\"distractor-box active-box\"></div><div class=\"distractor-box active-box\"></div><div class=\"distractor-box\"></div><div class=\"distractor-box\"></div><div class=\"distractor-box\"></div><div class=\"distractor-box\"></div><div class=\"distractor-box active-box\"></div><div class=\"distractor-box active-box\"></div><div class=\"distractor-box active-box\"></div><div class=\"distractor-box\"></div><div class=\"distractor-box\"></div><div class=\"distractor-box\"></div><div class=\"distractor-box\"></div><div class=\"distractor-box\"></div><div class=\"distractor-box\"></div><div class=\"distractor-box active-box\"></div></div>","response":"g","trial_id":"practice_inter-stimulus","exp_stage":"practice","condition":"operation_only","trial_duration":2500,"stimulus_duration":2500,"block_num":0,"choices":["b","y","g","r","e"],"trial_type":"html-keyboard-response","trial_index":6,"time_elapsed":5177388,"internal_node_id":"0.0-3.0-1.1-0.1","order_and_color_of_processing_boxes":["gray","gray","black","black","black","black","gray","gray","black","black","black","black","black","black","black","black","black","gray","black","black","black","black","gray","black","black","gray","black","gray","gray","black","gray","black","black","gray","black","gray","gray","black","gray","black","gray","black","black","gray","gray","black","black","gray","black","black","gray","gray","gray","gray","black","black","black","gray","gray","gray","gray","gray","gray","black"],"correct_spatial_judgement_key":"g","grid_symmetry":"symmetric","correct_trial":1},{"rt":639,"stimulus":"<div class=\"container\"><div class=\"distractor-box active-box\"></div><div class=\"distractor-box\"></div><div class=\"distractor-box active-box\"></div><div class=\"distractor-box active-box\"></div><div class=\"distractor-box active-box\"></div><div class=\"distractor-box active-box\"></div><div class=\"distractor-box\"></div><div class=\"distractor-box active-box\"></div><div class=\"distractor-box\"></div><div class=\"distractor-box active-box\"></div><div class=\"distractor-box\"></div><div class=\"distractor-box active-box\"></div><div class=\"distractor-box active-box\"></div><div class=\"distractor-box\"></div><div class=\"distractor-box active-box\"></div><div class=\"distractor-box\"></div><div class=\"distractor-box active-box\"></div><div class=\"distractor-box active-box\"></div><div class=\"distractor-box active-box\"></div><div class=\"distractor-box active-box\"></div><div class=\"distractor-box active-box\"></div><div class=\"distractor-box active-box\"></div><div class=\"distractor-box active-box\"></div><div class=\"distractor-box active-box\"></div><div class=\"distractor-box active-box\"></div><div class=\"distractor-box\"></div><div class=\"distractor-box\"></div><div class=\"distractor-box\"></div><div class=\"distractor-box\"></div><div class=\"distractor-box\"></div><div class=\"distractor-box\"></div><div class=\"distractor-box active-box\"></div><div class=\"distractor-box active-box\"></div><div class=\"distractor-box active-box\"></div><div class=\"distractor-box active-box\"></div><div class=\"distractor-box active-box\"></div><div class=\"distractor-box active-box\"></div><div class=\"distractor-box active-box\"></div><div class=\"distractor-box active-box\"></div><div class=\"distractor-box active-box\"></div><div class=\"distractor-box active-box\"></div><div class=\"distractor-box\"></div><div class=\"distractor-box\"></div><div class=\"distractor-box active-box\"></div><div class=\"distractor-box active-box\"></div><div class=\"distractor-box\"></div><div class=\"distractor-box\"></div><div class=\"distractor-box active-box\"></div><div class=\"distractor-box active-box\"></div><div class=\"distractor-box active-box\"></div><div class=\"distractor-box\"></div><div class=\"distractor-box active-box\"></div><div class=\"distractor-box active-box\"></div><div class=\"distractor-box\"></div><div class=\"distractor-box active-box\"></div><div class=\"distractor-box active-box\"></div><div class=\"distractor-box active-box\"></div><div class=\"distractor-box active-box\"></div><div class=\"distractor-box\"></div><div class=\"distractor-box active-box\"></div><div class=\"distractor-box active-box\"></div><div class=\"distractor-box\"></div><div class=\"distractor-box active-box\"></div><div class=\"distractor-box active-box\"></div></div>","response":"g","trial_id":"practice_inter-stimulus","exp_stage":"practice","condition":"operation_only","trial_duration":2500,"stimulus_duration":2500,"block_num":0,"choices":["b","y","g","r","e"],"trial_type":"html-keyboard-response","trial_index":7,"time_elapsed":5178029,"internal_node_id":"0.0-3.0-1.2-0.2","order_and_color_of_processing_boxes":["black","gray","black","black","black","black","gray","black","gray","black","gray","black","black","gray","black","gray","black","black","black","black","black","black","black","black","black","gray","gray","gray","gray","gray","gray","black","black","black","black","black","black","black","black","black","black","gray","gray","black","black","gray","gray","black","black","black","gray","black","black","gray","black","black","black","black","gray","black","black","gray","black","black"],"correct_spatial_judgement_key":"g","grid_symmetry":"symmetric","correct_trial":1},{"rt":null,"stimulus":"<div class=\"container\"><div class=\"distractor-box\"></div><div class=\"distractor-box\"></div><div class=\"distractor-box\"></div><div class=\"distractor-box active-box\"></div><div class=\"distractor-box active-box\"></div><div class=\"distractor-box\"></div><div class=\"distractor-box\"></div><div class=\"distractor-box\"></div><div class=\"distractor-box active-box\"></div><div class=\"distractor-box\"></div><div class=\"distractor-box\"></div><div class=\"distractor-box\"></div><div class=\"distractor-box\"></div><div class=\"distractor-box\"></div><div class=\"distractor-box\"></div><div class=\"distractor-box active-box\"></div><div class=\"distractor-box active-box\"></div><div class=\"distractor-box\"></div><div class=\"distractor-box active-box\"></div><div class=\"distractor-box\"></div><div class=\"distractor-box\"></div><div class=\"distractor-box active-box\"></div><div class=\"distractor-box\"></div><div class=\"distractor-box active-box\"></div><div class=\"distractor-box\"></div><div class=\"distractor-box\"></div><div class=\"distractor-box\"></div><div class=\"distractor-box\"></div><div class=\"distractor-box\"></div><div class=\"distractor-box\"></div><div class=\"distractor-box\"></div><div class=\"distractor-box\"></div><div class=\"distractor-box active-box\"></div><div class=\"distractor-box active-box\"></div><div class=\"distractor-box\"></div><div class=\"distractor-box\"></div><div class=\"distractor-box\"></div><div class=\"distractor-box\"></div><div class=\"distractor-box active-box\"></div><div class=\"distractor-box active-box\"></div><div class=\"distractor-box active-box\"></div><div class=\"distractor-box active-box\"></div><div class=\"distractor-box active-box\"></div><div class=\"distractor-box active-box\"></div><div class=\"distractor-box active-box\"></div><div class=\"distractor-box active-box\"></div><div class=\"distractor-box active-box\"></div><div class=\"distractor-box active-box\"></div><div class=\"distractor-box active-box\"></div><div class=\"distractor-box active-box\"></div><div class=\"distractor-box\"></div><div class=\"distractor-box active-box\"></div><div class=\"distractor-box active-box\"></div><div class=\"distractor-box\"></div><div class=\"distractor-box active-box\"></div><div class=\"distractor-box active-box\"></div><div class=\"distractor-box active-box\"></div><div class=\"distractor-box active-box\"></div><div class=\"distractor-box active-box\"></div><div class=\"distractor-box\"></div><div class=\"distractor-box\"></div><div class=\"distractor-box active-box\"></div><div class=\"distractor-box active-box\"></div><div class=\"distractor-box active-box\"></div></div>","response":null,"trial_id":"practice_inter-stimulus","exp_stage":"practice","condition":"operation_only","trial_duration":2500,"stimulus_duration":2500,"block_num":0,"choices":["b","y","g","r","e"],"trial_type":"html-keyboard-response","trial_index":8,"time_elapsed":5178274,"internal_node_id":"0.0-3.0-1.3-0.3","order_and_color_of_processing_boxes":["gray","gray","gray","black","black","gray","gray","gray","black","gray","gray","gray","gray","gray","gray","black","black","gray","black","gray","gray","black","gray","black","gray","gray","gray","gray","gray","gray","gray","gray","black","black","gray","gray","gray","gray","black","black","black","black","black","black","black","black","black","black","black","black","gray","black","black","gray","black","black","black","black","black","gray","gray","black","black","black"],"correct_spatial_judgement_key":"g","grid_symmetry":"symmetric","correct_trial":null},{"rt":null,"stimulus":"<div class = centerbox><div class = fixation>+</div></div>","response":null,"trial_id":"practice_stim","exp_stage":"practice","condition":"operation_only","trial_duration":1000,"stimulus_duration":1000,"block_num":0,"choices":["b","y","g","r","e"],"trial_type":"html-keyboard-response","trial_index":9,"time_elapsed":5179281,"internal_node_id":"0.0-3.0-2.0"},{"rt":723,"stimulus":"<div class=\"container\"><div class=\"distractor-box active-box\"></div><div class=\"distractor-box\"></div><div class=\"distractor-box active-box\"></div><div class=\"distractor-box\"></div><div class=\"distractor-box\"></div><div class=\"distractor-box active-box\"></div><div class=\"distractor-box\"></div><div class=\"distractor-box active-box\"></div><div class=\"distractor-box\"></div><div class=\"distractor-box active-box\"></div><div class=\"distractor-box active-box\"></div><div class=\"distractor-box active-box\"></div><div class=\"distractor-box active-box\"></div><div class=\"distractor-box active-box\"></div><div class=\"distractor-box active-box\"></div><div class=\"distractor-box\"></div><div class=\"distractor-box active-box\"></div><div class=\"distractor-box active-box\"></div><div class=\"distractor-box active-box\"></div><div class=\"distractor-box active-box\"></div><div class=\"distractor-box active-box\"></div><div class=\"distractor-box active-box\"></div><div class=\"distractor-box active-box\"></div><div class=\"distractor-box active-box\"></div><div class=\"distractor-box active-box\"></div><div class=\"distractor-box active-box\"></div><div class=\"distractor-box\"></div><div class=\"distractor-box active-box\"></div><div class=\"distractor-box active-box\"></div><div class=\"distractor-box\"></div><div class=\"distractor-box active-box\"></div><div class=\"distractor-box active-box\"></div><div class=\"distractor-box\"></div><div class=\"distractor-box\"></div><div class=\"distractor-box\"></div><div class=\"distractor-box\"></div><div class=\"distractor-box\"></div><div class=\"distractor-box\"></div><div class=\"distractor-box\"></div><div class=\"distractor-box\"></div><div class=\"distractor-box\"></div><div class=\"distractor-box active-box\"></div><div class=\"distractor-box active-box\"></div><div class=\"distractor-box\"></div><div class=\"distractor-box\"></div><div class=\"distractor-box active-box\"></div><div class=\"distractor-box active-box\"></div><div class=\"distractor-box\"></div><div class=\"distractor-box active-box\"></div><div class=\"distractor-box active-box\"></div><div class=\"distractor-box\"></div><div class=\"distractor-box\"></div><div class=\"distractor-box\"></div><div class=\"distractor-box\"></div><div class=\"distractor-box active-box\"></div><div class=\"distractor-box active-box\"></div><div class=\"distractor-box active-box\"></div><div class=\"distractor-box\"></div><div class=\"distractor-box\"></div><div class=\"distractor-box\"></div><div class=\"distractor-box\"></div><div class=\"distractor-box\"></div><div class=\"distractor-box\"></div><div class=\"distractor-box active-box\"></div></div>","response":"g","trial_id":"practice_inter-stimulus","exp_stage":"practice","condition":"operation_only","trial_duration":2500,"stimulus_duration":2500,"block_num":0,"choices":["b","y","g","r","e"],"trial_type":"html-keyboard-response","trial_index":10,"time_elapsed":5180007,"internal_node_id":"0.0-3.0-3.0-0.0","order_and_color_of_processing_boxes":["black","gray","black","gray","gray","black","gray","black","gray","black","black","black","black","black","black","gray","black","black","black","black","black","black","black","black","black","black","gray","black","black","gray","black","black","gray","gray","gray","gray","gray","gray","gray","gray","gray","black","black","gray","gray","black","black","gray","black","black","gray","gray","gray","gray","black","black","black","gray","gray","gray","gray","gray","gray","black"],"correct_spatial_judgement_key":"g","grid_symmetry":"symmetric","correct_trial":1},{"rt":799,"stimulus":"<div class=\"container\"><div class=\"distractor-box active-box\"></div><div class=\"distractor-box active-box\"></div><div class=\"distractor-box\"></div><div class=\"distractor-box active-box\"></div><div class=\"distractor-box active-box\"></div><div class=\"distractor-box\"></div><div class=\"distractor-box active-box\"></div><div class=\"distractor-box active-box\"></div><div class=\"distractor-box\"></div><div class=\"distractor-box active-box\"></div><div class=\"distractor-box\"></div><div class=\"distractor-box\"></div><div class=\"distractor-box\"></div><div class=\"distractor-box\"></div><div class=\"distractor-box active-box\"></div><div class=\"distractor-box\"></div><div class=\"distractor-box active-box\"></div><div class=\"distractor-box active-box\"></div><div class=\"distractor-box active-box\"></div><div class=\"distractor-box active-box\"></div><div class=\"distractor-box active-box\"></div><div class=\"distractor-box active-box\"></div><div class=\"distractor-box active-box\"></div><div class=\"distractor-box active-box\"></div><div class=\"distractor-box active-box\"></div><div class=\"distractor-box\"></div><div class=\"distractor-box\"></div><div class=\"distractor-box\"></div><div class=\"distractor-box\"></div><div class=\"distractor-box\"></div><div class=\"distractor-box\"></div><div class=\"distractor-box active-box\"></div><div class=\"distractor-box active-box\"></div><div class=\"distractor-box active-box\"></div><div class=\"distractor-box active-box\"></div><div class=\"distractor-box\"></div><div class=\"distractor-box\"></div><div class=\"distractor-box active-box\"></div><div class=\"distractor-box active-box\"></div><div class=\"distractor-box active-box\"></div><div class=\"distractor-box active-box\"></div><div class=\"distractor-box active-box\"></div><div class=\"distractor-box active-box\"></div><div class=\"distractor-box\"></div><div class=\"distractor-box\"></div><div class=\"distractor-box active-box\"></div><div class=\"distractor-box active-box\"></div><div class=\"distractor-box active-box\"></div><div class=\"distractor-box active-box\"></div><div class=\"distractor-box\"></div><div class=\"distractor-box\"></div><div class=\"distractor-box\"></div><div class=\"distractor-box\"></div><div class=\"distractor-box\"></div><div class=\"distractor-box\"></div><div class=\"distractor-box active-box\"></div><div class=\"distractor-box active-box\"></div><div class=\"distractor-box active-box\"></div><div class=\"distractor-box\"></div><div class=\"distractor-box\"></div><div class=\"distractor-box\"></div><div class=\"distractor-box\"></div><div class=\"distractor-box active-box\"></div><div class=\"distractor-box active-box\"></div></div>","response":"g","trial_id":"practice_inter-stimulus","exp_stage":"practice","condition":"operation_only","trial_duration":2500,"stimulus_duration":2500,"block_num":0,"choices":["b","y","g","r","e"],"trial_type":"html-keyboard-response","trial_index":11,"time_elapsed":5180810,"internal_node_id":"0.0-3.0-3.1-0.1","order_and_color_of_processing_boxes":["black","black","gray","black","black","gray","black","black","gray","black","gray","gray","gray","gray","black","gray","black","black","black","black","black","black","black","black","black","gray","gray","gray","gray","gray","gray","black","black","black","black","gray","gray","black","black","black","black","black","black","gray","gray","black","black","black","black","gray","gray","gray","gray","gray","gray","black","black","black","gray","gray","gray","gray","black","black"],"correct_spatial_judgement_key":"g","grid_symmetry":"symmetric","correct_trial":1},{"rt":784,"stimulus":"<div class=\"container\"><div class=\"distractor-box\"></div><div class=\"distractor-box\"></div><div class=\"distractor-box active-box\"></div><div class=\"distractor-box\"></div><div class=\"distractor-box\"></div><div class=\"distractor-box active-box\"></div><div class=\"distractor-box\"></div><div class=\"distractor-box\"></div><div class=\"distractor-box active-box\"></div><div class=\"distractor-box active-box\"></div><div class=\"distractor-box\"></div><div class=\"distractor-box active-box\"></div><div class=\"distractor-box active-box\"></div><div class=\"distractor-box\"></div><div class=\"distractor-box active-box\"></div><div class=\"distractor-box active-box\"></div><div class=\"distractor-box active-box\"></div><div class=\"distractor-box active-box\"></div><div class=\"distractor-box\"></div><div class=\"distractor-box\"></div><div class=\"distractor-box\"></div><div class=\"distractor-box\"></div><div class=\"distractor-box active-box\"></div><div class=\"distractor-box active-box\"></div><div class=\"distractor-box\"></div><div class=\"distractor-box active-box\"></div><div class=\"distractor-box active-box\"></div><div class=\"distractor-box\"></div><div class=\"distractor-box\"></div><div class=\"distractor-box active-box\"></div><div class=\"distractor-box active-box\"></div><div class=\"distractor-box\"></div><div class=\"distractor-box\"></div><div class=\"distractor-box active-box\"></div><div class=\"distractor-box\"></div><div class=\"distractor-box\"></div><div class=\"distractor-box\"></div><div class=\"distractor-box\"></div><div class=\"distractor-box active-box\"></div><div class=\"distractor-box\"></div><div class=\"distractor-box active-box\"></div><div class=\"distractor-box\"></div><div class=\"distractor-box active-box\"></div><div class=\"distractor-box\"></div><div class=\"distractor-box\"></div><div class=\"distractor-box active-box\"></div><div class=\"distractor-box\"></div><div class=\"distractor-box active-box\"></div><div class=\"distractor-box active-box\"></div><div class=\"distractor-box\"></div><div class=\"distractor-box active-box\"></div><div class=\"distractor-box\"></div><div class=\"distractor-box\"></div><div class=\"distractor-box active-box\"></div><div class=\"distractor-box\"></div><div class=\"distractor-box active-box\"></div><div class=\"distractor-box active-box\"></div><div class=\"distractor-box active-box\"></div><div class=\"distractor-box\"></div><div class=\"distractor-box\"></div><div class=\"distractor-box\"></div><div class=\"distractor-box\"></div><div class=\"distractor-box active-box\"></div><div class=\"distractor-box active-box\"></div></div>","response":"g","trial_id":"practice_inter-stimulus","exp_stage":"practice","condition":"operation_only","trial_duration":2500,"stimulus_duration":2500,"block_num":0,"choices":["b","y","g","r","e"],"trial_type":"html-keyboard-response","trial_index":12,"time_elapsed":5181598,"internal_node_id":"0.0-3.0-3.2-0.2","order_and_color_of_processing_boxes":["gray","gray","black","gray","gray","black","gray","gray","black","black","gray","black","black","gray","black","black","black","black","gray","gray","gray","gray","black","black","gray","black","black","gray","gray","black","black","gray","gray","black","gray","gray","gray","gray","black","gray","black","gray","black","gray","gray","black","gray","black","black","gray","black","gray","gray","black","gray","black","black","black","gray","gray","gray","gray","black","black"],"correct_spatial_judgement_key":"g","grid_symmetry":"symmetric","correct_trial":1},{"rt":null,"stimulus":"<div class=\"container\"><div class=\"distractor-box active-box\"></div><div class=\"distractor-box\"></div><div class=\"distractor-box active-box\"></div><div class=\"distractor-box\"></div><div class=\"distractor-box active-box\"></div><div class=\"distractor-box\"></div><div class=\"distractor-box active-box\"></div><div class=\"distractor-box\"></div><div class=\"distractor-box active-box\"></div><div class=\"distractor-box active-box\"></div><div class=\"distractor-box\"></div><div class=\"distractor-box\"></div><div class=\"distractor-box active-box\"></div><div class=\"distractor-box\"></div><div class=\"distractor-box active-box\"></div><div class=\"distractor-box\"></div><div class=\"distractor-box\"></div><div class=\"distractor-box active-box\"></div><div class=\"distractor-box active-box\"></div><div class=\"distractor-box\"></div><div class=\"distractor-box active-box\"></div><div class=\"distractor-box active-box\"></div><div class=\"distractor-box active-box\"></div><div class=\"distractor-box\"></div><div class=\"distractor-box active-box\"></div><div class=\"distractor-box active-box\"></div><div class=\"distractor-box\"></div><div class=\"distractor-box active-box\"></div><div class=\"distractor-box\"></div><div class=\"distractor-box\"></div><div class=\"distractor-box active-box\"></div><div class=\"distractor-box active-box\"></div><div class=\"distractor-box\"></div><div class=\"distractor-box active-box\"></div><div class=\"distractor-box\"></div><div class=\"distractor-box\"></div><div class=\"distractor-box\"></div><div class=\"distractor-box active-box\"></div><div class=\"distractor-box active-box\"></div><div class=\"distractor-box\"></div><div class=\"distractor-box active-box\"></div><div class=\"distractor-box\"></div><div class=\"distractor-box active-box\"></div><div class=\"distractor-box\"></div><div class=\"distractor-box\"></div><div class=\"distractor-box\"></div><div class=\"distractor-box\"></div><div class=\"distractor-box\"></div><div class=\"distractor-box\"></div><div class=\"distractor-box\"></div><div class=\"distractor-box\"></div><div class=\"distractor-box active-box\"></div><div class=\"distractor-box active-box\"></div><div class=\"distractor-box active-box\"></div><div class=\"distractor-box\"></div><div class=\"distractor-box active-box\"></div><div class=\"distractor-box\"></div><div class=\"distractor-box active-box\"></div><div class=\"distractor-box\"></div><div class=\"distractor-box active-box\"></div><div class=\"distractor-box active-box\"></div><div class=\"distractor-box\"></div><div class=\"distractor-box active-box\"></div><div class=\"distractor-box\"></div></div>","response":null,"trial_id":"practice_inter-stimulus","exp_stage":"practice","condition":"operation_only","trial_duration":2500,"stimulus_duration":2500,"block_num":0,"choices":["b","y","g","r","e"],"trial_type":"html-keyboard-response","trial_index":13,"time_elapsed":5181788,"internal_node_id":"0.0-3.0-3.3-0.3","order_and_color_of_processing_boxes":["black","gray","black","gray","black","gray","black","gray","black","black","gray","gray","black","gray","black","gray","gray","black","black","gray","black","black","black","gray","black","black","gray","black","gray","gray","black","black","gray","black","gray","gray","gray","black","black","gray","black","gray","black","gray","gray","gray","gray","gray","gray","gray","gray","black","black","black","gray","black","gray","black","gray","black","black","gray","black","gray"],"correct_spatial_judgement_key":"b","grid_symmetry":"asymmetric","correct_trial":null},{"rt":null,"stimulus":"<div class = centerbox><div class = fixation>+</div></div>","response":null,"trial_id":"practice_stim","exp_stage":"practice","condition":"operation_only","trial_duration":1000,"stimulus_duration":1000,"block_num":0,"choices":["b","y","g","r","e"],"trial_type":"html-keyboard-response","trial_index":14,"time_elapsed":5182796,"internal_node_id":"0.0-3.0-4.0"},{"rt":791,"stimulus":"<div class=\"container\"><div class=\"distractor-box active-box\"></div><div class=\"distractor-box\"></div><div class=\"distractor-box\"></div><div class=\"distractor-box active-box\"></div><div class=\"distractor-box active-box\"></div><div class=\"distractor-box\"></div><div class=\"distractor-box\"></div><div class=\"distractor-box active-box\"></div><div class=\"distractor-box active-box\"></div><div class=\"distractor-box active-box\"></div><div class=\"distractor-box active-box\"></div><div class=\"distractor-box active-box\"></div><div class=\"distractor-box active-box\"></div><div class=\"distractor-box active-box\"></div><div class=\"distractor-box active-box\"></div><div class=\"distractor-box active-box\"></div><div class=\"distractor-box active-box\"></div><div class=\"distractor-box active-box\"></div><div class=\"distractor-box active-box\"></div><div class=\"distractor-box active-box\"></div><div class=\"distractor-box active-box\"></div><div class=\"distractor-box active-box\"></div><div class=\"distractor-box active-box\"></div><div class=\"distractor-box active-box\"></div><div class=\"distractor-box active-box\"></div><div class=\"distractor-box\"></div><div class=\"distractor-box active-box\"></div><div class=\"distractor-box active-box\"></div><div class=\"distractor-box active-box\"></div><div class=\"distractor-box active-box\"></div><div class=\"distractor-box\"></div><div class=\"distractor-box active-box\"></div><div class=\"distractor-box\"></div><div class=\"distractor-box\"></div><div class=\"distractor-box\"></div><div class=\"distractor-box\"></div><div class=\"distractor-box\"></div><div class=\"distractor-box\"></div><div class=\"distractor-box\"></div><div class=\"distractor-box\"></div><div class=\"distractor-box active-box\"></div><div class=\"distractor-box\"></div><div class=\"distractor-box\"></div><div class=\"distractor-box active-box\"></div><div class=\"distractor-box active-box\"></div><div class=\"distractor-box\"></div><div class=\"distractor-box\"></div><div class=\"distractor-box active-box\"></div><div class=\"distractor-box\"></div><div class=\"distractor-box active-box\"></div><div class=\"distractor-box\"></div><div class=\"distractor-box active-box\"></div><div class=\"distractor-box active-box\"></div><div class=\"distractor-box\"></div><div class=\"distractor-box active-box\"></div><div class=\"distractor-box\"></div><div class=\"distractor-box\"></div><div class=\"distractor-box\"></div><div class=\"distractor-box\"></div><div class=\"distractor-box\"></div><div class=\"distractor-box\"></div><div class=\"distractor-box\"></div><div class=\"distractor-box\"></div><div class=\"distractor-box\"></div></div>","response":"g","trial_id":"practice_inter-stimulus","exp_stage":"practice","condition":"operation_only","trial_duration":2500,"stimulus_duration":2500,"block_num":0,"choices":["b","y","g","r","e"],"trial_type":"html-keyboard-response","trial_index":15,"time_elapsed":5183589,"internal_node_id":"0.0-3.0-5.0-0.0","order_and_color_of_processing_boxes":["black","gray","gray","black","black","gray","gray","black","black","black","black","black","black","black","black","black","black","black","black","black","black","black","black","black","black","gray","black","black","black","black","gray","black","gray","gray","gray","gray","gray","gray","gray","gray","black","gray","gray","black","black","gray","gray","black","gray","black","gray","black","black","gray","black","gray","gray","gray","gray","gray","gray","gray","gray","gray"],"correct_spatial_judgement_key":"g","grid_symmetry":"symmetric","correct_trial":1},{"rt":681,"stimulus":"<div class=\"container\"><div class=\"distractor-box\"></div><div class=\"distractor-box\"></div><div class=\"distractor-box\"></div><div class=\"distractor-box\"></div><div class=\"distractor-box active-box\"></div><div class=\"distractor-box active-box\"></div><div class=\"distractor-box\"></div><div class=\"distractor-box\"></div><div class=\"distractor-box\"></div><div class=\"distractor-box active-box\"></div><div class=\"distractor-box active-box\"></div><div class=\"distractor-box\"></div><div class=\"distractor-box\"></div><div class=\"distractor-box\"></div><div class=\"distractor-box active-box\"></div><div class=\"distractor-box active-box\"></div><div class=\"distractor-box\"></div><div class=\"distractor-box\"></div><div class=\"distractor-box active-box\"></div><div class=\"distractor-box\"></div><div class=\"distractor-box\"></div><div class=\"distractor-box\"></div><div class=\"distractor-box active-box\"></div><div class=\"distractor-box\"></div><div class=\"distractor-box\"></div><div class=\"distractor-box active-box\"></div><div class=\"distractor-box active-box\"></div><div class=\"distractor-box active-box\"></div><div class=\"distractor-box\"></div><div class=\"distractor-box active-box\"></div><div class=\"distractor-box active-box\"></div><div class=\"distractor-box active-box\"></div><div class=\"distractor-box\"></div><div class=\"distractor-box active-box\"></div><div class=\"distractor-box\"></div><div class=\"distractor-box\"></div><div class=\"distractor-box\"></div><div class=\"distractor-box active-box\"></div><div class=\"distractor-box\"></div><div class=\"distractor-box\"></div><div class=\"distractor-box\"></div><div class=\"distractor-box active-box\"></div><div class=\"distractor-box\"></div><div class=\"distractor-box\"></div><div class=\"distractor-box\"></div><div class=\"distractor-box\"></div><div class=\"distractor-box\"></div><div class=\"distractor-box\"></div><div class=\"distractor-box\"></div><div class=\"distractor-box\"></div><div class=\"distractor-box\"></div><div class=\"distractor-box active-box\"></div><div class=\"distractor-box\"></div><div class=\"distractor-box active-box\"></div><div class=\"distractor-box active-box\"></div><div class=\"distractor-box\"></div><div class=\"distractor-box\"></div><div class=\"distractor-box\"></div><div class=\"distractor-box active-box\"></div><div class=\"distractor-box\"></div><div class=\"distractor-box active-box\"></div><div class=\"distractor-box\"></div><div class=\"distractor-box\"></div><div class=\"distractor-box\"></div></div>","response":"b","trial_id":"practice_inter-stimulus","exp_stage":"practice","condition":"operation_only","trial_duration":2500,"stimulus_duration":2500,"block_num":0,"choices":["b","y","g","r","e"],"trial_type":"html-keyboard-response","trial_index":16,"time_elapsed":5184273,"internal_node_id":"0.0-3.0-5.1-0.1","order_and_color_of_processing_boxes":["gray","gray","gray","gray","black","black","gray","gray","gray","black","black","gray","gray","gray","black","black","gray","gray","black","gray","gray","gray","black","gray","gray","black","black","black","gray","black","black","black","gray","black","gray","gray","gray","black","gray","gray","gray","black","gray","gray","gray","gray","gray","gray","gray","gray","gray","black","gray","black","black","gray","gray","gray","black","gray","black","gray","gray","gray"],"correct_spatial_judgement_key":"b","grid_symmetry":"asymmetric","correct_trial":1},{"rt":602,"stimulus":"<div class=\"container\"><div class=\"distractor-box active-box\"></div><div class=\"distractor-box active-box\"></div><div class=\"distractor-box\"></div><div class=\"distractor-box\"></div><div class=\"distractor-box\"></div><div class=\"distractor-box\"></div><div class=\"distractor-box active-box\"></div><div class=\"distractor-box active-box\"></div><div class=\"distractor-box active-box\"></div><div class=\"distractor-box\"></div><div class=\"distractor-box\"></div><div class=\"distractor-box active-box\"></div><div class=\"distractor-box active-box\"></div><div class=\"distractor-box\"></div><div class=\"distractor-box\"></div><div class=\"distractor-box active-box\"></div><div class=\"distractor-box active-box\"></div><div class=\"distractor-box\"></div><div class=\"distractor-box active-box\"></div><div class=\"distractor-box active-box\"></div><div class=\"distractor-box active-box\"></div><div class=\"distractor-box active-box\"></div><div class=\"distractor-box\"></div><div class=\"distractor-box active-box\"></div><div class=\"distractor-box active-box\"></div><div class=\"distractor-box active-box\"></div><div class=\"distractor-box\"></div><div class=\"distractor-box active-box\"></div><div class=\"distractor-box active-box\"></div><div class=\"distractor-box\"></div><div class=\"distractor-box active-box\"></div><div class=\"distractor-box active-box\"></div><div class=\"distractor-box active-box\"></div><div class=\"distractor-box active-box\"></div><div class=\"distractor-box\"></div><div class=\"distractor-box active-box\"></div><div class=\"distractor-box active-box\"></div><div class=\"distractor-box\"></div><div class=\"distractor-box active-box\"></div><div class=\"distractor-box active-box\"></div><div class=\"distractor-box active-box\"></div><div class=\"distractor-box active-box\"></div><div class=\"distractor-box active-box\"></div><div class=\"distractor-box\"></div><div class=\"distractor-box\"></div><div class=\"distractor-box active-box\"></div><div class=\"distractor-box active-box\"></div><div class=\"distractor-box active-box\"></div><div class=\"distractor-box active-box\"></div><div class=\"distractor-box\"></div><div class=\"distractor-box active-box\"></div><div class=\"distractor-box active-box\"></div><div class=\"distractor-box active-box\"></div><div class=\"distractor-box active-box\"></div><div class=\"distractor-box\"></div><div class=\"distractor-box active-box\"></div><div class=\"distractor-box\"></div><div class=\"distractor-box active-box\"></div><div class=\"distractor-box\"></div><div class=\"distractor-box active-box\"></div><div class=\"distractor-box active-box\"></div><div class=\"distractor-box\"></div><div class=\"distractor-box active-box\"></div><div class=\"distractor-box\"></div></div>","response":"g","trial_id":"practice_inter-stimulus","exp_stage":"practice","condition":"operation_only","trial_duration":2500,"stimulus_duration":2500,"block_num":0,"choices":["b","y","g","r","e"],"trial_type":"html-keyboard-response","trial_index":17,"time_elapsed":5184879,"internal_node_id":"0.0-3.0-5.2-0.2","order_and_color_of_processing_boxes":["black","black","gray","gray","gray","gray","black","black","black","gray","gray","black","black","gray","gray","black","black","gray","black","black","black","black","gray","black","black","black","gray","black","black","gray","black","black","black","black","gray","black","black","gray","black","black","black","black","black","gray","gray","black","black","black","black","gray","black","black","black","black","gray","black","gray","black","gray","black","black","gray","black","gray"],"correct_spatial_judgement_key":"g","grid_symmetry":"symmetric","correct_trial":1},{"rt":null,"stimulus":"<div class=\"container\"><div class=\"distractor-box\"></div><div class=\"distractor-box\"></div><div class=\"distractor-box\"></div><div class=\"distractor-box active-box\"></div><div class=\"distractor-box active-box\"></div><div class=\"distractor-box\"></div><div class=\"distractor-box\"></div><div class=\"distractor-box\"></div><div class=\"distractor-box active-box\"></div><div class=\"distractor-box\"></div><div class=\"distractor-box active-box\"></div><div class=\"distractor-box active-box\"></div><div class=\"distractor-box active-box\"></div><div class=\"distractor-box active-box\"></div><div class=\"distractor-box\"></div><div class=\"distractor-box active-box\"></div><div class=\"distractor-box active-box\"></div><div class=\"distractor-box\"></div><div class=\"distractor-box active-box\"></div><div class=\"distractor-box active-box\"></div><div class=\"distractor-box active-box\"></div><div class=\"distractor-box active-box\"></div><div class=\"distractor-box\"></div><div class=\"distractor-box active-box\"></div><div class=\"distractor-box\"></div><div class=\"distractor-box active-box\"></div><div class=\"distractor-box active-box\"></div><div class=\"distractor-box\"></div><div class=\"distractor-box\"></div><div class=\"distractor-box active-box\"></div><div class=\"distractor-box active-box\"></div><div class=\"distractor-box\"></div><div class=\"distractor-box\"></div><div class=\"distractor-box active-box\"></div><div class=\"distractor-box active-box\"></div><div class=\"distractor-box active-box\"></div><div class=\"distractor-box active-box\"></div><div class=\"distractor-box active-box\"></div><div class=\"distractor-box active-box\"></div><div class=\"distractor-box\"></div><div class=\"distractor-box active-box\"></div><div class=\"distractor-box active-box\"></div><div class=\"distractor-box\"></div><div class=\"distractor-box\"></div><div class=\"distractor-box\"></div><div class=\"distractor-box\"></div><div class=\"distractor-box active-box\"></div><div class=\"distractor-box active-box\"></div><div class=\"distractor-box\"></div><div class=\"distractor-box\"></div><div class=\"distractor-box\"></div><div class=\"distractor-box active-box\"></div><div class=\"distractor-box active-box\"></div><div class=\"distractor-box\"></div><div class=\"distractor-box\"></div><div class=\"distractor-box\"></div><div class=\"distractor-box\"></div><div class=\"distractor-box\"></div><div class=\"distractor-box\"></div><div class=\"distractor-box active-box\"></div><div class=\"distractor-box active-box\"></div><div class=\"distractor-box\"></div><div class=\"distractor-box\"></div><div class=\"distractor-box\"></div></div>","response":null,"trial_id":"practice_inter-stimulus","exp_stage":"practice","condition":"operation_only","trial_duration":2500,"stimulus_duration":2500,"block_num":0,"choices":["b","y","g","r","e"],"trial_type":"html-keyboard-response","trial_index":18,"time_elapsed":5185304,"internal_node_id":"0.0-3.0-5.3-0.3","order_and_color_of_processing_boxes":["gray","gray","gray","black","black","gray","gray","gray","black","gray","black","black","black","black","gray","black","black","gray","black","black","black","black","gray","black","gray","black","black","gray","gray","black","black","gray","gray","black","black","black","black","black","black","gray","black","black","gray","gray","gray","gray","black","black","gray","gray","gray","black","black","gray","gray","gray","gray","gray","gray","black","black","gray","gray","gray"],"correct_spatial_judgement_key":"g","grid_symmetry":"symmetric","correct_trial":null},{"rt":null,"stimulus":"<div class = centerbox><div class = fixation>+</div></div>","response":null,"trial_id":"practice_stim","exp_stage":"practice","condition":"operation_only","trial_duration":1000,"stimulus_duration":1000,"block_num":0,"choices":["b","y","g","r","e"],"trial_type":"html-keyboard-response","trial_index":19,"time_elapsed":5186311,"internal_node_id":"0.0-3.0-6.0"},{"rt":1263,"stimulus":"<div class=\"container\"><div class=\"distractor-box active-box\"></div><div class=\"distractor-box\"></div><div class=\"distractor-box active-box\"></div><div class=\"distractor-box active-box\"></div><div class=\"distractor-box\"></div><div class=\"distractor-box active-box\"></div><div class=\"distractor-box\"></div><div class=\"distractor-box active-box\"></div><div class=\"distractor-box active-box\"></div><div class=\"distractor-box\"></div><div class=\"distractor-box active-box\"></div><div class=\"distractor-box\"></div><div class=\"distractor-box\"></div><div class=\"distractor-box\"></div><div class=\"distractor-box active-box\"></div><div class=\"distractor-box active-box\"></div><div class=\"distractor-box active-box\"></div><div class=\"distractor-box\"></div><div class=\"distractor-box\"></div><div class=\"distractor-box active-box\"></div><div class=\"distractor-box active-box\"></div><div class=\"distractor-box\"></div><div class=\"distractor-box\"></div><div class=\"distractor-box active-box\"></div><div class=\"distractor-box active-box\"></div><div class=\"distractor-box\"></div><div class=\"distractor-box\"></div><div class=\"distractor-box\"></div><div class=\"distractor-box active-box\"></div><div class=\"distractor-box\"></div><div class=\"distractor-box active-box\"></div><div class=\"distractor-box active-box\"></div><div class=\"distractor-box\"></div><div class=\"distractor-box\"></div><div class=\"distractor-box\"></div><div class=\"distractor-box active-box\"></div><div class=\"distractor-box\"></div><div class=\"distractor-box\"></div><div class=\"distractor-box\"></div><div class=\"distractor-box active-box\"></div><div class=\"distractor-box\"></div><div class=\"distractor-box active-box\"></div><div class=\"distractor-box\"></div><div class=\"distractor-box active-box\"></div><div class=\"distractor-box active-box\"></div><div class=\"distractor-box\"></div><div class=\"distractor-box\"></div><div class=\"distractor-box\"></div><div class=\"distractor-box\"></div><div class=\"distractor-box\"></div><div class=\"distractor-box\"></div><div class=\"distractor-box\"></div><div class=\"distractor-box active-box\"></div><div class=\"distractor-box active-box\"></div><div class=\"distractor-box active-box\"></div><div class=\"distractor-box active-box\"></div><div class=\"distractor-box active-box\"></div><div class=\"distractor-box\"></div><div class=\"distractor-box\"></div><div class=\"distractor-box\"></div><div class=\"distractor-box\"></div><div class=\"distractor-box active-box\"></div><div class=\"distractor-box active-box\"></div><div class=\"distractor-box\"></div></div>","response":"b","trial_id":"practice_inter-stimulus","exp_stage":"practice","condition":"operation_only","trial_duration":2500,"stimulus_duration":2500,"block_num":0,"choices":["b","y","g","r","e"],"trial_type":"html-keyboard-response","trial_index":20,"time_elapsed":5187577,"internal_node_id":"0.0-3.0-7.0-0.0","order_and_color_of_processing_boxes":["black","gray","black","black","gray","black","gray","black","black","gray","black","gray","gray","gray","black","black","black","gray","gray","black","black","gray","gray","black","black","gray","gray","gray","black","gray","black","black","gray","gray","gray","black","gray","gray","gray","black","gray","black","gray","black","black","gray","gray","gray","gray","gray","gray","gray","black","black","black","black","black","gray","gray","gray","gray","black","black","gray"],"correct_spatial_judgement_key":"b","grid_symmetry":"asymmetric","correct_trial":1},{"rt":null,"stimulus":"<div class=\"container\"><div class=\"distractor-box active-box\"></div><div class=\"distractor-box\"></div><div class=\"distractor-box\"></div><div class=\"distractor-box active-box\"></div><div class=\"distractor-box active-box\"></div><div class=\"distractor-box\"></div><div class=\"distractor-box\"></div><div class=\"distractor-box active-box\"></div><div class=\"distractor-box active-box\"></div><div class=\"distractor-box active-box\"></div><div class=\"distractor-box\"></div><div class=\"distractor-box\"></div><div class=\"distractor-box\"></div><div class=\"distractor-box\"></div><div class=\"distractor-box active-box\"></div><div class=\"distractor-box active-box\"></div><div class=\"distractor-box active-box\"></div><div class=\"distractor-box\"></div><div class=\"distractor-box active-box\"></div><div class=\"distractor-box\"></div><div class=\"distractor-box\"></div><div class=\"distractor-box active-box\"></div><div class=\"distractor-box\"></div><div class=\"distractor-box active-box\"></div><div class=\"distractor-box\"></div><div class=\"distractor-box\"></div><div class=\"distractor-box active-box\"></div><div class=\"distractor-box active-box\"></div><div class=\"distractor-box active-box\"></div><div class=\"distractor-box active-box\"></div><div class=\"distractor-box\"></div><div class=\"distractor-box\"></div><div class=\"distractor-box\"></div><div class=\"distractor-box\"></div><div class=\"distractor-box active-box\"></div><div class=\"distractor-box\"></div><div class=\"distractor-box\"></div><div class=\"distractor-box active-box\"></div><div class=\"distractor-box\"></div><div class=\"distractor-box\"></div><div class=\"distractor-box active-box\"></div><div class=\"distractor-box\"></div><div class=\"distractor-box\"></div><div class=\"distractor-box active-box\"></div><div class=\"distractor-box active-box\"></div><div class=\"distractor-box\"></div><div class=\"distractor-box\"></div><div class=\"distractor-box active-box\"></div><div class=\"distractor-box active-box\"></div><div class=\"distractor-box active-box\"></div><div class=\"distractor-box\"></div><div class=\"distractor-box\"></div><div class=\"distractor-box\"></div><div class=\"distractor-box\"></div><div class=\"distractor-box active-box\"></div><div class=\"distractor-box active-box\"></div><div class=\"distractor-box active-box\"></div><div class=\"distractor-box\"></div><div class=\"distractor-box active-box\"></div><div class=\"distractor-box active-box\"></div><div class=\"distractor-box active-box\"></div><div class=\"distractor-box active-box\"></div><div class=\"distractor-box\"></div><div class=\"distractor-box active-box\"></div></div>","response":-1,"trial_id":"practice_inter-stimulus","exp_stage":"practice","condition":"operation_only","trial_duration":2500,"stimulus_duration":2500,"block_num":0,"choices":["b","y","g","r","e"],"trial_type":"html-keyboard-response","trial_index":21,"time_elapsed":5188820,"internal_node_id":"0.0-3.0-7.1-0.1","order_and_color_of_processing_boxes":["black","gray","gray","black","black","gray","gray","black","black","black","gray","gray","gray","gray","black","black","black","gray","black","gray","gray","black","gray","black","gray","gray","black","black","black","black","gray","gray","gray","gray","black","gray","gray","black","gray","gray","black","gray","gray","black","black","gray","gray","black","black","black","gray","gray","gray","gray","black","black","black","gray","black","black","black","black","gray","black"],"correct_spatial_judgement_key":"g","grid_symmetry":"symmetric","correct_trial":null},{"rt":null,"stimulus":"<div class = centerbox><div class = fixation>+</div></div>","response":null,"trial_id":"practice_stim","exp_stage":"practice","condition":"operation_only","trial_duration":1000,"stimulus_duration":1000,"block_num":0,"choices":["b","y","g","r","e"],"trial_type":"html-keyboard-response","trial_index":22,"time_elapsed":5189827,"internal_node_id":"0.0-3.0-8.0"},{"rt":null,"stimulus":"<div class = centerbox><div class = fixation>+</div></div>","response":null,"trial_id":"practice_trial","exp_stage":"practice","trial_duration":7000,"stimulus_duration":7000,"choices":["b","y","g","r","e"],"trial_type":"html-keyboard-response","trial_index":23,"time_elapsed":5197161,"internal_node_id":"0.0-3.0-9.0","condition":"operation_only","block_num":0},{"rt":null,"stimulus":"<div class = centerbox><div class = fixation>+</div></div>","response":null,"trial_id":"practice_ITI","exp_stage":"practice","block_num":0,"condition":"operation_only","choices":["b","y","g","r","e"],"ITIParams":0.5,"trial_type":"html-keyboard-response","trial_index":24,"time_elapsed":5202168,"internal_node_id":"0.0-3.0-10.0","trial_duration":5000,"stimulus_duration":5000},{"rt":1913,"stimulus":"<div class=\"bigbox\"><div class=\"picture_box\"><p class=\"block-text\"><div class = centerbox><p class = block-text>Please take a short break.</p></div></p></div></div>","response":" ","trial_id":"test_feedback","exp_stage":"test","trial_duration":4000,"block_num":0,"trial_type":"html-keyboard-response","trial_index":25,"time_elapsed":5204082,"internal_node_id":"0.0-4.0","block_level_feedback":{}},{"rt":1812,"stimulus":"<div><h1>Scanner setup.</h1><h1>Stay as still as possible.</h1><h1>Do not swallow.</h1></div>","response":"enter","trial_id":"fmri_wait_block_initial","trial_type":"html-keyboard-response","trial_index":26,"time_elapsed":5205895,"internal_node_id":"0.0-5.0-0.0"},{"rt":1163,"stimulus":"<div><h1>Task about to start!</h1><h1>Stay as still as possible.</h1><h1>Do not swallow.</h1></div>","response":"t","trial_id":"fmri_wait_block_trigger_start","trial_type":"html-keyboard-response","trial_index":27,"time_elapsed":5207059,"internal_node_id":"0.0-5.0-1.0-0.0"},{"rt":null,"stimulus":"<div><h1>Task about to start!</h1><h1>Stay as still as possible.</h1><h1>Do not swallow.</h1></div>","response":null,"trial_id":"fmri_wait_block_trigger_end","block_duration":10430,"trial_type":"html-keyboard-response","trial_index":28,"time_elapsed":5217492,"internal_node_id":"0.0-5.0-1.0-1.0"},{"rt":852,"stimulus":"<div class=\"container\"><div class=\"distractor-box\"></div><div class=\"distractor-box\"></div><div class=\"distractor-box\"></div><div class=\"distractor-box active-box\"></div><div class=\"distractor-box\"></div><div class=\"distractor-box active-box\"></div><div class=\"distractor-box\"></div><div class=\"distractor-box\"></div><div class=\"distractor-box active-box\"></div><div class=\"distractor-box\"></div><div class=\"distractor-box active-box\"></div><div class=\"distractor-box active-box\"></div><div class=\"distractor-box\"></div><div class=\"distractor-box\"></div><div class=\"distractor-box active-box\"></div><div class=\"distractor-box active-box\"></div><div class=\"distractor-box active-box\"></div><div class=\"distractor-box active-box\"></div><div class=\"distractor-box\"></div><div class=\"distractor-box active-box\"></div><div class=\"distractor-box\"></div><div class=\"distractor-box\"></div><div class=\"distractor-box\"></div><div class=\"distractor-box active-box\"></div><div class=\"distractor-box\"></div><div class=\"distractor-box\"></div><div class=\"distractor-box\"></div><div class=\"distractor-box active-box\"></div><div class=\"distractor-box\"></div><div class=\"distractor-box active-box\"></div><div class=\"distractor-box active-box\"></div><div class=\"distractor-box active-box\"></div><div class=\"distractor-box\"></div><div class=\"distractor-box\"></div><div class=\"distractor-box\"></div><div class=\"distractor-box\"></div><div class=\"distractor-box\"></div><div class=\"distractor-box\"></div><div class=\"distractor-box active-box\"></div><div class=\"distractor-box active-box\"></div><div class=\"distractor-box\"></div><div class=\"distractor-box\"></div><div class=\"distractor-box\"></div><div class=\"distractor-box\"></div><div class=\"distractor-box active-box\"></div><div class=\"distractor-box active-box\"></div><div class=\"distractor-box\"></div><div class=\"distractor-box active-box\"></div><div class=\"distractor-box active-box\"></div><div class=\"distractor-box active-box\"></div><div class=\"distractor-box active-box\"></div><div class=\"distractor-box\"></div><div class=\"distractor-box\"></div><div class=\"distractor-box active-box\"></div><div class=\"distractor-box active-box\"></div><div class=\"distractor-box\"></div><div class=\"distractor-box active-box\"></div><div class=\"distractor-box active-box\"></div><div class=\"distractor-box\"></div><div class=\"distractor-box active-box\"></div><div class=\"distractor-box active-box\"></div><div class=\"distractor-box active-box\"></div><div class=\"distractor-box active-box\"></div><div class=\"distractor-box active-box\"></div></div>","response":"b","trial_id":"test_inter-stimulus","exp_stage":"test","condition":"operation_only","trial_duration":2500,"stimulus_duration":2500,"block_num":0,"choices":["b","y","g","r","e"],"trial_type":"html-keyboard-response","trial_index":29,"time_elapsed":5218346,"internal_node_id":"0.0-6.0-3.0-0.0","order_and_color_of_processing_boxes":["gray","gray","gray","black","gray","black","gray","gray","black","gray","black","black","gray","gray","black","black","black","black","gray","black","gray","gray","gray","black","gray","gray","gray","black","gray","black","black","black","gray","gray","gray","gray","gray","gray","black","black","gray","gray","gray","gray","black","black","gray","black","black","black","black","gray","gray","black","black","gray","black","black","gray","black","black","black","black","black"],"correct_spatial_judgement_key":"b","grid_symmetry":"asymmetric","correct_trial":1},{"rt":652,"stimulus":"<div class=\"container\"><div class=\"distractor-box active-box\"></div><div class=\"distractor-box active-box\"></div><div class=\"distractor-box active-box\"></div><div class=\"distractor-box active-box\"></div><div class=\"distractor-box active-box\"></div><div class=\"distractor-box\"></div><div class=\"distractor-box\"></div><div class=\"distractor-box\"></div><div class=\"distractor-box\"></div><div class=\"distractor-box active-box\"></div><div class=\"distractor-box active-box\"></div><div class=\"distractor-box\"></div><div class=\"distractor-box\"></div><div class=\"distractor-box\"></div><div class=\"distractor-box active-box\"></div><div class=\"distractor-box\"></div><div class=\"distractor-box active-box\"></div><div class=\"distractor-box\"></div><div class=\"distractor-box active-box\"></div><div class=\"distractor-box active-box\"></div><div class=\"distractor-box active-box\"></div><div class=\"distractor-box\"></div><div class=\"distractor-box active-box\"></div><div class=\"distractor-box active-box\"></div><div class=\"distractor-box active-box\"></div><div class=\"distractor-box active-box\"></div><div class=\"distractor-box active-box\"></div><div class=\"distractor-box active-box\"></div><div class=\"distractor-box active-box\"></div><div class=\"distractor-box\"></div><div class=\"distractor-box\"></div><div class=\"distractor-box\"></div><div class=\"distractor-box active-box\"></div><div class=\"distractor-box active-box\"></div><div class=\"distractor-box active-box\"></div><div class=\"distractor-box active-box\"></div><div class=\"distractor-box\"></div><div class=\"distractor-box\"></div><div class=\"distractor-box active-box\"></div><div class=\"distractor-box\"></div><div class=\"distractor-box active-box\"></div><div class=\"distractor-box\"></div><div class=\"distractor-box active-box\"></div><div class=\"distractor-box\"></div><div class=\"distractor-box active-box\"></div><div class=\"distractor-box active-box\"></div><div class=\"distractor-box active-box\"></div><div class=\"distractor-box\"></div><div class=\"distractor-box\"></div><div class=\"distractor-box\"></div><div class=\"distractor-box active-box\"></div><div class=\"distractor-box active-box\"></div><div class=\"distractor-box\"></div><div class=\"distractor-box\"></div><div class=\"distractor-box\"></div><div class=\"distractor-box\"></div><div class=\"distractor-box active-box\"></div><div class=\"distractor-box active-box\"></div><div class=\"distractor-box\"></div><div class=\"distractor-box\"></div><div class=\"distractor-box active-box\"></div><div class=\"distractor-box\"></div><div class=\"distractor-box active-box\"></div><div class=\"distractor-box\"></div></div>","response":"b","trial_id":"test_inter-stimulus","exp_stage":"test","condition":"operation_only","trial_duration":2500,"stimulus_duration":2500,"block_num":0,"choices":["b","y","g","r","e"],"trial_type":"html-keyboard-response","trial_index":30,"time_elapsed":5219000,"internal_node_id":"0.0-6.0-3.1-0.1","order_and_color_of_processing_boxes":["black","black","black","black","black","gray","gray","gray","gray","black","black","gray","gray","gray","black","gray","black","gray","black","black","black","gray","black","black","black","black","black","black","black","gray","gray","gray","black","black","black","black","gray","gray","black","gray","black","gray","black","gray","black","black","black","gray","gray","gray","black","black","gray","gray","gray","gray","black","black","gray","gray","black","gray","black","gray"],"correct_spatial_judgement_key":"b","grid_symmetry":"asymmetric","correct_trial":1},{"rt":648,"stimulus":"<div class=\"container\"><div class=\"distractor-box\"></div><div class=\"distractor-box active-box\"></div><div class=\"distractor-box active-box\"></div><div class=\"distractor-box active-box\"></div><div class=\"distractor-box active-box\"></div><div class=\"distractor-box active-box\"></div><div class=\"distractor-box active-box\"></div><div class=\"distractor-box\"></div><div class=\"distractor-box\"></div><div class=\"distractor-box active-box\"></div><div class=\"distractor-box active-box\"></div><div class=\"distractor-box active-box\"></div><div class=\"distractor-box active-box\"></div><div class=\"distractor-box active-box\"></div><div class=\"distractor-box active-box\"></div><div class=\"distractor-box\"></div><div class=\"distractor-box active-box\"></div><div class=\"distractor-box\"></div><div class=\"distractor-box active-box\"></div><div class=\"distractor-box\"></div><div class=\"distractor-box\"></div><div class=\"distractor-box active-box\"></div><div class=\"distractor-box\"></div><div class=\"distractor-box active-box\"></div><div class=\"distractor-box active-box\"></div><div class=\"distractor-box\"></div><div class=\"distractor-box active-box\"></div><div class=\"distractor-box\"></div><div class=\"distractor-box\"></div><div class=\"distractor-box active-box\"></div><div class=\"distractor-box\"></div><div class=\"distractor-box active-box\"></div><div class=\"distractor-box\"></div><div class=\"distractor-box active-box\"></div><div class=\"distractor-box active-box\"></div><div class=\"distractor-box active-box\"></div><div class=\"distractor-box active-box\"></div><div class=\"distractor-box active-box\"></div><div class=\"distractor-box active-box\"></div><div class=\"distractor-box\"></div><div class=\"distractor-box\"></div><div class=\"distractor-box\"></div><div class=\"distractor-box\"></div><div class=\"distractor-box\"></div><div class=\"distractor-box\"></div><div class=\"distractor-box\"></div><div class=\"distractor-box\"></div><div class=\"distractor-box\"></div><div class=\"distractor-box\"></div><div class=\"distractor-box active-box\"></div><div class=\"distractor-box\"></div><div class=\"distractor-box\"></div><div class=\"distractor-box\"></div><div class=\"distractor-box\"></div><div class=\"distractor-box active-box\"></div><div class=\"distractor-box\"></div><div class=\"distractor-box active-box\"></div><div class=\"distractor-box\"></div><div class=\"distractor-box active-box\"></div><div class=\"distractor-box\"></div><div class=\"distractor-box\"></div><div class=\"distractor-box active-box\"></div><div class=\"distractor-box\"></div><div class=\"distractor-box active-box\"></div></div>","response":"g","trial_id":"test_inter-stimulus","exp_stage":"test","condition":"operation_only","trial_duration":2500,"stimulus_duration":2500,"block_num":0,"choices":["b","y","g","r","e"],"trial_type":"html-keyboard-response","trial_index":31,"time_elapsed":5219649,"internal_node_id":"0.0-6.0-3.2-0.2","order_and_color_of_processing_boxes":["gray","black","black","black","black","black","black","gray","gray","black","black","black","black","black","black","gray","black","gray","black","gray","gray","black","gray","black","black","gray","black","gray","gray","black","gray","black","gray","black","black","black","black","black","black","gray","gray","gray","gray","gray","gray","gray","gray","gray","gray","black","gray","gray","gray","gray","black","gray","black","gray","black","gray","gray","black","gray","black"],"correct_spatial_judgement_key":"g","grid_symmetry":"symmetric","correct_trial":1},{"rt":null,"stimulus":"<div class=\"container\"><div class=\"distractor-box\"></div><div class=\"distractor-box active-box\"></div><div class=\"distractor-box\"></div><div class=\"distractor-box\"></div><div class=\"distractor-box\"></div><div class=\"distractor-box active-box\"></div><div class=\"distractor-box\"></div><div class=\"distractor-box active-box\"></div><div class=\"distractor-box\"></div><div class=\"distractor-box active-box\"></div><div class=\"distractor-box\"></div><div class=\"distractor-box\"></div><div class=\"distractor-box active-box\"></div><div class=\"distractor-box\"></div><div class=\"distractor-box active-box\"></div><div class=\"distractor-box active-box\"></div><div class=\"distractor-box active-box\"></div><div class=\"distractor-box\"></div><div class=\"distractor-box\"></div><div class=\"distractor-box active-box\"></div><div class=\"distractor-box active-box\"></div><div class=\"distractor-box\"></div><div class=\"distractor-box\"></div><div class=\"distractor-box active-box\"></div><div class=\"distractor-box active-box\"></div><div class=\"distractor-box\"></div><div class=\"distractor-box active-box\"></div><div class=\"distractor-box active-box\"></div><div class=\"distractor-box\"></div><div class=\"distractor-box\"></div><div class=\"distractor-box active-box\"></div><div class=\"distractor-box active-box\"></div><div class=\"distractor-box\"></div><div class=\"distractor-box\"></div><div class=\"distractor-box\"></div><div class=\"distractor-box\"></div><div class=\"distractor-box active-box\"></div><div class=\"distractor-box active-box\"></div><div class=\"distractor-box\"></div><div class=\"distractor-box\"></div><div class=\"distractor-box\"></div><div class=\"distractor-box\"></div><div class=\"distractor-box active-box\"></div><div class=\"distractor-box\"></div><div class=\"distractor-box active-box\"></div><div class=\"distractor-box active-box\"></div><div class=\"distractor-box\"></div><div class=\"distractor-box\"></div><div class=\"distractor-box\"></div><div class=\"distractor-box active-box\"></div><div class=\"distractor-box active-box\"></div><div class=\"distractor-box active-box\"></div><div class=\"distractor-box\"></div><div class=\"distractor-box active-box\"></div><div class=\"distractor-box\"></div><div class=\"distractor-box active-box\"></div><div class=\"distractor-box\"></div><div class=\"distractor-box active-box\"></div><div class=\"distractor-box\"></div><div class=\"distractor-box active-box\"></div><div class=\"distractor-box\"></div><div class=\"distractor-box active-box\"></div><div class=\"distractor-box active-box\"></div><div class=\"distractor-box\"></div></div>","response":null,"trial_id":"test_inter-stimulus","exp_stage":"test","condition":"operation_only","trial_duration":2500,"stimulus_duration":2500,"block_num":0,"choices":["b","y","g","r","e"],"trial_type":"html-keyboard-response","trial_index":32,"time_elapsed":5220000,"internal_node_id":"0.0-6.0-3.3-0.3","order_and_color_of_processing_boxes":["gray","black","gray","gray","gray","black","gray","black","gray","black","gray","gray","black","gray","black","black","black","gray","gray","black","black","gray","gray","black","black","gray","black","black","gray","gray","black","black","gray","gray","gray","gray","black","black","gray","gray","gray","gray","black","gray","black","black","gray","gray","gray","black","black","black","gray","black","gray","black","gray","black","gray","black","gray","black","black","gray"],"correct_spatial_judgement_key":"b","grid_symmetry":"asymmetric","correct_trial":null},{"rt":null,"stimulus":"<div class = centerbox><div class = fixation>+</div></div>","response":null,"trial_id":"test_stim","exp_stage":"test","condition":"operation_only","trial_duration":1000,"stimulus_duration":1000,"block_num":0,"choices":["b","y","g","r","e"],"trial_type":"html-keyboard-response","trial_index":33,"time_elapsed":5221006,"internal_node_id":"0.0-6.0-4.0"},{"rt":726,"stimulus":"<div class=\"container\"><div class=\"distractor-box\"></div><div class=\"distractor-box\"></div><div class=\"distractor-box active-box\"></div><div class=\"distractor-box active-box\"></div><div class=\"distractor-box active-box\"></div><div class=\"distractor-box\"></div><div class=\"distractor-box active-box\"></div><div class=\"distractor-box\"></div><div class=\"distractor-box\"></div><div class=\"distractor-box active-box\"></div><div class=\"distractor-box\"></div><div class=\"distractor-box active-box\"></div><div class=\"distractor-box active-box\"></div><div class=\"distractor-box\"></div><div class=\"distractor-box active-box\"></div><div class=\"distractor-box active-box\"></div><div class=\"distractor-box active-box\"></div><div class=\"distractor-box active-box\"></div><div class=\"distractor-box\"></div><div class=\"distractor-box active-box\"></div><div class=\"distractor-box\"></div><div class=\"distractor-box\"></div><div class=\"distractor-box active-box\"></div><div class=\"distractor-box active-box\"></div><div class=\"distractor-box active-box\"></div><div class=\"distractor-box active-box\"></div><div class=\"distractor-box\"></div><div class=\"distractor-box\"></div><div class=\"distractor-box\"></div><div class=\"distractor-box\"></div><div class=\"distractor-box active-box\"></div><div class=\"distractor-box\"></div><div class=\"distractor-box\"></div><div class=\"distractor-box\"></div><div class=\"distractor-box\"></div><div class=\"distractor-box\"></div><div class=\"distractor-box\"></div><div class=\"distractor-box\"></div><div class=\"distractor-box\"></div><div class=\"distractor-box active-box\"></div><div class=\"distractor-box active-box\"></div><div class=\"distractor-box active-box\"></div><div class=\"distractor-box\"></div><div class=\"distractor-box\"></div><div class=\"distractor-box active-box\"></div><div class=\"distractor-box\"></div><div class=\"distractor-box active-box\"></div><div class=\"distractor-box active-box\"></div><div class=\"distractor-box\"></div><div class=\"distractor-box active-box\"></div><div class=\"distractor-box\"></div><div class=\"distractor-box active-box\"></div><div class=\"distractor-box active-box\"></div><div class=\"distractor-box active-box\"></div><div class=\"distractor-box\"></div><div class=\"distractor-box\"></div><div class=\"distractor-box active-box\"></div><div class=\"distractor-box active-box\"></div><div class=\"distractor-box active-box\"></div><div class=\"distractor-box active-box\"></div><div class=\"distractor-box active-box\"></div><div class=\"distractor-box active-box\"></div><div class=\"distractor-box\"></div><div class=\"distractor-box active-box\"></div></div>","response":"b","trial_id":"test_inter-stimulus","exp_stage":"test","condition":"operation_only","trial_duration":2500,"stimulus_duration":2500,"block_num":0,"choices":["b","y","g","r","e"],"trial_type":"html-keyboard-response","trial_index":34,"time_elapsed":5221732,"internal_node_id":"0.0-6.0-5.0-0.0","order_and_color_of_processing_boxes":["gray","gray","black","black","black","gray","black","gray","gray","black","gray","black","black","gray","black","black","black","black","gray","black","gray","gray","black","black","black","black","gray","gray","gray","gray","black","gray","gray","gray","gray","gray","gray","gray","gray","black","black","black","gray","gray","black","gray","black","black","gray","black","gray","black","black","black","gray","gray","black","black","black","black","black","black","gray","black"],"correct_spatial_judgement_key":"b","grid_symmetry":"asymmetric","correct_trial":1},{"rt":649,"stimulus":"<div class=\"container\"><div class=\"distractor-box\"></div><div class=\"distractor-box\"></div><div class=\"distractor-box active-box\"></div><div class=\"distractor-box\"></div><div class=\"distractor-box\"></div><div class=\"distractor-box active-box\"></div><div class=\"distractor-box\"></div><div class=\"distractor-box\"></div><div class=\"distractor-box active-box\"></div><div class=\"distractor-box active-box\"></div><div class=\"distractor-box active-box\"></div><div class=\"distractor-box\"></div><div class=\"distractor-box\"></div><div class=\"distractor-box active-box\"></div><div class=\"distractor-box active-box\"></div><div class=\"distractor-box active-box\"></div><div class=\"distractor-box\"></div><div class=\"distractor-box\"></div><div class=\"distractor-box active-box\"></div><div class=\"distractor-box\"></div><div class=\"distractor-box\"></div><div class=\"distractor-box active-box\"></div><div class=\"distractor-box\"></div><div class=\"distractor-box\"></div><div class=\"distractor-box\"></div><div class=\"distractor-box\"></div><div class=\"distractor-box active-box\"></div><div class=\"distractor-box\"></div><div class=\"distractor-box\"></div><div class=\"distractor-box active-box\"></div><div class=\"distractor-box\"></div><div class=\"distractor-box\"></div><div class=\"distractor-box active-box\"></div><div class=\"distractor-box active-box\"></div><div class=\"distractor-box\"></div><div class=\"distractor-box active-box\"></div><div class=\"distractor-box active-box\"></div><div class=\"distractor-box\"></div><div class=\"distractor-box active-box\"></div><div class=\"distractor-box active-box\"></div><div class=\"distractor-box active-box\"></div><div class=\"distractor-box active-box\"></div><div class=\"distractor-box\"></div><div class=\"distractor-box\"></div><div class=\"distractor-box\"></div><div class=\"distractor-box\"></div><div class=\"distractor-box active-box\"></div><div class=\"distractor-box active-box\"></div><div class=\"distractor-box\"></div><div class=\"distractor-box active-box\"></div><div class=\"distractor-box\"></div><div class=\"distractor-box active-box\"></div><div class=\"distractor-box active-box\"></div><div class=\"distractor-box\"></div><div class=\"distractor-box active-box\"></div><div class=\"distractor-box\"></div><div class=\"distractor-box\"></div><div class=\"distractor-box\"></div><div class=\"distractor-box active-box\"></div><div class=\"distractor-box active-box\"></div><div class=\"distractor-box active-box\"></div><div class=\"distractor-box active-box\"></div><div class=\"distractor-box\"></div><div class=\"distractor-box\"></div></div>","response":"g","trial_id":"test_inter-stimulus","exp_stage":"test","condition":"operation_only","trial_duration":2500,"stimulus_duration":2500,"block_num":0,"choices":["b","y","g","r","e"],"trial_type":"html-keyboard-response","trial_index":35,"time_elapsed":5222383,"internal_node_id":"0.0-6.0-5.1-0.1","order_and_color_of_processing_boxes":["gray","gray","black","gray","gray","black","gray","gray","black","black","black","gray","gray","black","black","black","gray","gray","black","gray","gray","black","gray","gray","gray","gray","black","gray","gray","black","gray","gray","black","black","gray","black","black","gray","black","black","black","black","gray","gray","gray","gray","black","black","gray","black","gray","black","black","gray","black","gray","gray","gray","black","black","black","black","gray","gray"],"correct_spatial_judgement_key":"g","grid_symmetry":"symmetric","correct_trial":1},{"rt":599,"stimulus":"<div class=\"container\"><div class=\"distractor-box active-box\"></div><div class=\"distractor-box active-box\"></div><div class=\"distractor-box\"></div><div class=\"distractor-box\"></div><div class=\"distractor-box\"></div><div class=\"distractor-box active-box\"></div><div class=\"distractor-box active-box\"></div><div class=\"distractor-box\"></div><div class=\"distractor-box active-box\"></div><div class=\"distractor-box\"></div><div class=\"distractor-box active-box\"></div><div class=\"distractor-box active-box\"></div><div class=\"distractor-box\"></div><div class=\"distractor-box active-box\"></div><div class=\"distractor-box active-box\"></div><div class=\"distractor-box active-box\"></div><div class=\"distractor-box active-box\"></div><div class=\"distractor-box\"></div><div class=\"distractor-box active-box\"></div><div class=\"distractor-box\"></div><div class=\"distractor-box\"></div><div class=\"distractor-box active-box\"></div><div class=\"distractor-box active-box\"></div><div class=\"distractor-box\"></div><div class=\"distractor-box\"></div><div class=\"distractor-box active-box\"></div><div class=\"distractor-box active-box\"></div><div class=\"distractor-box\"></div><div class=\"distractor-box active-box\"></div><div class=\"distractor-box\"></div><div class=\"distractor-box active-box\"></div><div class=\"distractor-box active-box\"></div><div class=\"distractor-box active-box\"></div><div class=\"distractor-box\"></div><div class=\"distractor-box active-box\"></div><div class=\"distractor-box\"></div><div class=\"distractor-box\"></div><div class=\"distractor-box\"></div><div class=\"distractor-box\"></div><div class=\"distractor-box active-box\"></div><div class=\"distractor-box active-box\"></div><div class=\"distractor-box active-box\"></div><div class=\"distractor-box active-box\"></div><div class=\"distractor-box\"></div><div class=\"distractor-box active-box\"></div><div class=\"distractor-box\"></div><div class=\"distractor-box active-box\"></div><div class=\"distractor-box active-box\"></div><div class=\"distractor-box active-box\"></div><div class=\"distractor-box\"></div><div class=\"distractor-box active-box\"></div><div class=\"distractor-box active-box\"></div><div class=\"distractor-box active-box\"></div><div class=\"distractor-box active-box\"></div><div class=\"distractor-box active-box\"></div><div class=\"distractor-box\"></div><div class=\"distractor-box\"></div><div class=\"distractor-box active-box\"></div><div class=\"distractor-box active-box\"></div><div class=\"distractor-box active-box\"></div><div class=\"distractor-box active-box\"></div><div class=\"distractor-box\"></div><div class=\"distractor-box\"></div><div class=\"distractor-box active-box\"></div></div>","response":"b","trial_id":"test_inter-stimulus","exp_stage":"test","condition":"operation_only","trial_duration":2500,"stimulus_duration":2500,"block_num":0,"choices":["b","y","g","r","e"],"trial_type":"html-keyboard-response","trial_index":36,"time_elapsed":5222983,"internal_node_id":"0.0-6.0-5.2-0.2","order_and_color_of_processing_boxes":["black","black","gray","gray","gray","black","black","gray","black","gray","black","black","gray","black","black","black","black","gray","black","gray","gray","black","black","gray","gray","black","black","gray","black","gray","black","black","black","gray","black","gray","gray","gray","gray","black","black","black","black","gray","black","gray","black","black","black","gray","black","black","black","black","black","gray","gray","black","black","black","black","gray","gray","black"],"correct_spatial_judgement_key":"b","grid_symmetry":"asymmetric","correct_trial":1},{"rt":null,"stimulus":"<div class=\"container\"><div class=\"distractor-box active-box\"></div><div class=\"distractor-box active-box\"></div><div class=\"distractor-box active-box\"></div><div class=\"distractor-box active-box\"></div><div class=\"distractor-box\"></div><div class=\"distractor-box active-box\"></div><div class=\"distractor-box active-box\"></div><div class=\"distractor-box\"></div><div class=\"distractor-box\"></div><div class=\"distractor-box active-box\"></div><div class=\"distractor-box active-box\"></div><div class=\"distractor-box active-box\"></div><div class=\"distractor-box active-box\"></div><div class=\"distractor-box active-box\"></div><div class=\"distractor-box\"></div><div class=\"distractor-box\"></div><div class=\"distractor-box active-box\"></div><div class=\"distractor-box active-box\"></div><div class=\"distractor-box active-box\"></div><div class=\"distractor-box active-box\"></div><div class=\"distractor-box active-box\"></div><div class=\"distractor-box\"></div><div class=\"distractor-box active-box\"></div><div class=\"distractor-box\"></div><div class=\"distractor-box\"></div><div class=\"distractor-box active-box\"></div><div class=\"distractor-box\"></div><div class=\"distractor-box\"></div><div class=\"distractor-box\"></div><div class=\"distractor-box active-box\"></div><div class=\"distractor-box\"></div><div class=\"distractor-box\"></div><div class=\"distractor-box\"></div><div class=\"distractor-box active-box\"></div><div class=\"distractor-box\"></div><div class=\"distractor-box\"></div><div class=\"distractor-box active-box\"></div><div class=\"distractor-box active-box\"></div><div class=\"distractor-box active-box\"></div><div class=\"distractor-box\"></div><div class=\"distractor-box active-box\"></div><div class=\"distractor-box active-box\"></div><div class=\"distractor-box active-box\"></div><div class=\"distractor-box active-box\"></div><div class=\"distractor-box\"></div><div class=\"distractor-box\"></div><div class=\"distractor-box active-box\"></div><div class=\"distractor-box active-box\"></div><div class=\"distractor-box active-box\"></div><div class=\"distractor-box active-box\"></div><div class=\"distractor-box active-box\"></div><div class=\"distractor-box active-box\"></div><div class=\"distractor-box\"></div><div class=\"distractor-box\"></div><div class=\"distractor-box active-box\"></div><div class=\"distractor-box\"></div><div class=\"distractor-box active-box\"></div><div class=\"distractor-box active-box\"></div><div class=\"distractor-box\"></div><div class=\"distractor-box active-box\"></div><div class=\"distractor-box active-box\"></div><div class=\"distractor-box active-box\"></div><div class=\"distractor-box\"></div><div class=\"distractor-box active-box\"></div></div>","response":null,"trial_id":"test_inter-stimulus","exp_stage":"test","condition":"operation_only","trial_duration":2500,"stimulus_duration":2500,"block_num":0,"choices":["b","y","g","r","e"],"trial_type":"html-keyboard-response","trial_index":37,"time_elapsed":5223511,"internal_node_id":"0.0-6.0-5.3-0.3","order_and_color_of_processing_boxes":["black","black","black","black","gray","black","black","gray","gray","black","black","black","black","black","gray","gray","black","black","black","black","black","gray","black","gray","gray","black","gray","gray","gray","black","gray","gray","gray","black","gray","gray","black","black","black","gray","black","black","black","black","gray","gray","black","black","black","black","black","black","gray","gray","black","gray","black","black","gray","black","black","black","gray","black"],"correct_spatial_judgement_key":"b","grid_symmetry":"asymmetric","correct_trial":null},{"rt":186,"stimulus":"<div class = centerbox><div class = fixation>+</div></div>","response":"b","trial_id":"test_stim","exp_stage":"test","condition":"operation_only","trial_duration":1000,"stimulus_duration":1000,"block_num":0,"choices":["b","y","g","r","e"],"trial_type":"html-keyboard-response","trial_index":38,"time_elapsed":5224517,"internal_node_id":"0.0-6.0-6.0"},{"rt":633,"stimulus":"<div class=\"container\"><div class=\"distractor-box active-box\"></div><div class=\"distractor-box\"></div><div class=\"distractor-box\"></div><div class=\"distractor-box active-box\"></div><div class=\"distractor-box\"></div><div class=\"distractor-box active-box\"></div><div class=\"distractor-box active-box\"></div><div class=\"distractor-box\"></div><div class=\"distractor-box active-box\"></div><div class=\"distractor-box active-box\"></div><div class=\"distractor-box active-box\"></div><div class=\"distractor-box\"></div><div class=\"distractor-box\"></div><div class=\"distractor-box active-box\"></div><div class=\"distractor-box\"></div><div class=\"distractor-box\"></div><div class=\"distractor-box\"></div><div class=\"distractor-box\"></div><div class=\"distractor-box active-box\"></div><div class=\"distractor-box\"></div><div class=\"distractor-box active-box\"></div><div class=\"distractor-box active-box\"></div><div class=\"distractor-box\"></div><div class=\"distractor-box active-box\"></div><div class=\"distractor-box active-box\"></div><div class=\"distractor-box active-box\"></div><div class=\"distractor-box\"></div><div class=\"distractor-box\"></div><div class=\"distractor-box\"></div><div class=\"distractor-box\"></div><div class=\"distractor-box\"></div><div class=\"distractor-box\"></div><div class=\"distractor-box active-box\"></div><div class=\"distractor-box active-box\"></div><div class=\"distractor-box\"></div><div class=\"distractor-box active-box\"></div><div class=\"distractor-box\"></div><div class=\"distractor-box active-box\"></div><div class=\"distractor-box\"></div><div class=\"distractor-box active-box\"></div><div class=\"distractor-box active-box\"></div><div class=\"distractor-box\"></div><div class=\"distractor-box active-box\"></div><div class=\"distractor-box active-box\"></div><div class=\"distractor-box\"></div><div class=\"distractor-box\"></div><div class=\"distractor-box\"></div><div class=\"distractor-box\"></div><div class=\"distractor-box\"></div><div class=\"distractor-box active-box\"></div><div class=\"distractor-box active-box\"></div><div class=\"distractor-box\"></div><div class=\"distractor-box\"></div><div class=\"distractor-box active-box\"></div><div class=\"distractor-box\"></div><div class=\"distractor-box\"></div><div class=\"distractor-box\"></div><div class=\"distractor-box active-box\"></div><div class=\"distractor-box\"></div><div class=\"distractor-box\"></div><div class=\"distractor-box active-box\"></div><div class=\"distractor-box active-box\"></div><div class=\"distractor-box\"></div><div class=\"distractor-box\"></div></div>","response":"b","trial_id":"test_inter-stimulus","exp_stage":"test","condition":"operation_only","trial_duration":2500,"stimulus_duration":2500,"block_num":0,"choices":["b","y","g","r","e"],"trial_type":"html-keyboard-response","trial_index":39,"time_elapsed":5225151,"internal_node_id":"0.0-6.0-7.0-0.0","order_and_color_of_processing_boxes":["black","gray","gray","black","gray","black","black","gray","black","black","black","gray","gray","black","gray","gray","gray","gray","black","gray","black","black","gray","black","black","black","gray","gray","gray","gray","gray","gray","black","black","gray","black","gray","black","gray","black","black","gray","black","black","gray","gray","gray","gray","gray","black","black","gray","gray","black","gray","gray","gray","black","gray","gray","black","black","gray","gray"],"correct_spatial_judgement_key":"b","grid_symmetry":"asymmetric","correct_trial":1},{"rt":643,"stimulus":"<div class=\"container\"><div class=\"distractor-box\"></div><div class=\"distractor-box\"></div><div class=\"distractor-box active-box\"></div><div class=\"distractor-box active-box\"></div><div class=\"distractor-box active-box\"></div><div class=\"distractor-box active-box\"></div><div class=\"distractor-box\"></div><div class=\"distractor-box\"></div><div class=\"distractor-box\"></div><div class=\"distractor-box\"></div><div class=\"distractor-box\"></div><div class=\"distractor-box\"></div><div class=\"distractor-box\"></div><div class=\"distractor-box\"></div><div class=\"distractor-box\"></div><div class=\"distractor-box\"></div><div class=\"distractor-box active-box\"></div><div class=\"distractor-box\"></div><div class=\"distractor-box active-box\"></div><div class=\"distractor-box\"></div><div class=\"distractor-box\"></div><div class=\"distractor-box active-box\"></div><div class=\"distractor-box\"></div><div class=\"distractor-box active-box\"></div><div class=\"distractor-box active-box\"></div><div class=\"distractor-box\"></div><div class=\"distractor-box\"></div><div class=\"distractor-box\"></div><div class=\"distractor-box\"></div><div class=\"distractor-box\"></div><div class=\"distractor-box\"></div><div class=\"distractor-box active-box\"></div><div class=\"distractor-box active-box\"></div><div class=\"distractor-box\"></div><div class=\"distractor-box active-box\"></div><div class=\"distractor-box\"></div><div class=\"distractor-box\"></div><div class=\"distractor-box active-box\"></div><div class=\"distractor-box\"></div><div class=\"distractor-box active-box\"></div><div class=\"distractor-box\"></div><div class=\"distractor-box active-box\"></div><div class=\"distractor-box active-box\"></div><div class=\"distractor-box active-box\"></div><div class=\"distractor-box active-box\"></div><div class=\"distractor-box active-box\"></div><div class=\"distractor-box active-box\"></div><div class=\"distractor-box\"></div><div class=\"distractor-box active-box\"></div><div class=\"distractor-box\"></div><div class=\"distractor-box active-box\"></div><div class=\"distractor-box\"></div><div class=\"distractor-box\"></div><div class=\"distractor-box active-box\"></div><div class=\"distractor-box\"></div><div class=\"distractor-box active-box\"></div><div class=\"distractor-box\"></div><div class=\"distractor-box active-box\"></div><div class=\"distractor-box\"></div><div class=\"distractor-box active-box\"></div><div class=\"distractor-box active-box\"></div><div class=\"distractor-box\"></div><div class=\"distractor-box active-box\"></div><div class=\"distractor-box\"></div></div>","response":"g","trial_id":"test_inter-stimulus","exp_stage":"test","condition":"operation_only","trial_duration":2500,"stimulus_duration":2500,"block_num":0,"choices":["b","y","g","r","e"],"trial_type":"html-keyboard-response","trial_index":40,"time_elapsed":5225795,"internal_node_id":"0.0-6.0-7.1-0.1","order_and_color_of_processing_boxes":["gray","gray","black","black","black","black","gray","gray","gray","gray","gray","gray","gray","gray","gray","gray","black","gray","black","gray","gray","black","gray","black","black","gray","gray","gray","gray","gray","gray","black","black","gray","black","gray","gray","black","gray","black","gray","black","black","black","black","black","black","gray","black","gray","black","gray","gray","black","gray","black","gray","black","gray","black","black","gray","black","gray"],"correct_spatial_judgement_key":"g","grid_symmetry":"symmetric","correct_trial":1},{"rt":656,"stimulus":"<div class=\"container\"><div class=\"distractor-box active-box\"></div><div class=\"distractor-box\"></div><div class=\"distractor-box active-box\"></div><div class=\"distractor-box active-box\"></div><div class=\"distractor-box active-box\"></div><div class=\"distractor-box active-box\"></div><div class=\"distractor-box\"></div><div class=\"distractor-box active-box\"></div><div class=\"distractor-box active-box\"></div><div class=\"distractor-box active-box\"></div><div class=\"distractor-box active-box\"></div><div class=\"distractor-box active-box\"></div><div class=\"distractor-box\"></div><div class=\"distractor-box active-box\"></div><div class=\"distractor-box\"></div><div class=\"distractor-box active-box\"></div><div class=\"distractor-box active-box\"></div><div class=\"distractor-box active-box\"></div><div class=\"distractor-box active-box\"></div><div class=\"distractor-box active-box\"></div><div class=\"distractor-box active-box\"></div><div class=\"distractor-box active-box\"></div><div class=\"distractor-box active-box\"></div><div class=\"distractor-box\"></div><div class=\"distractor-box active-box\"></div><div class=\"distractor-box\"></div><div class=\"distractor-box\"></div><div class=\"distractor-box active-box\"></div><div class=\"distractor-box\"></div><div class=\"distractor-box active-box\"></div><div class=\"distractor-box\"></div><div class=\"distractor-box\"></div><div class=\"distractor-box active-box\"></div><div class=\"distractor-box\"></div><div class=\"distractor-box active-box\"></div><div class=\"distractor-box\"></div><div class=\"distractor-box active-box\"></div><div class=\"distractor-box active-box\"></div><div class=\"distractor-box active-box\"></div><div class=\"distractor-box active-box\"></div><div class=\"distractor-box\"></div><div class=\"distractor-box\"></div><div class=\"distractor-box\"></div><div class=\"distractor-box active-box\"></div><div class=\"distractor-box\"></div><div class=\"distractor-box active-box\"></div><div class=\"distractor-box active-box\"></div><div class=\"distractor-box active-box\"></div><div class=\"distractor-box\"></div><div class=\"distractor-box\"></div><div class=\"distractor-box active-box\"></div><div class=\"distractor-box active-box\"></div><div class=\"distractor-box active-box\"></div><div class=\"distractor-box\"></div><div class=\"distractor-box active-box\"></div><div class=\"distractor-box\"></div><div class=\"distractor-box\"></div><div class=\"distractor-box active-box\"></div><div class=\"distractor-box active-box\"></div><div class=\"distractor-box\"></div><div class=\"distractor-box active-box\"></div><div class=\"distractor-box active-box\"></div><div class=\"distractor-box\"></div><div class=\"distractor-box\"></div></div>","response":"b","trial_id":"test_inter-stimulus","exp_stage":"test","condition":"operation_only","trial_duration":2500,"stimulus_duration":2500,"block_num":0,"choices":["b","y","g","r","e"],"trial_type":"html-keyboard-response","trial_index":41,"time_elapsed":5226454,"internal_node_id":"0.0-6.0-7.2-0.2","order_and_color_of_processing_boxes":["black","gray","black","black","black","black","gray","black","black","black","black","black","gray","black","gray","black","black","black","black","black","black","black","black","gray","black","gray","gray","black","gray","black","gray","gray","black","gray","black","gray","black","black","black","black","gray","gray","gray","black","gray","black","black","black","gray","gray","black","black","black","gray","black","gray","gray","black","black","gray","black","black","gray","gray"],"correct_spatial_judgement_key":"b","grid_symmetry":"asymmetric","correct_trial":1},{"rt":563,"stimulus":"<div class=\"container\"><div class=\"distractor-box active-box\"></div><div class=\"distractor-box\"></div><div class=\"distractor-box\"></div><div class=\"distractor-box active-box\"></div><div class=\"distractor-box active-box\"></div><div class=\"distractor-box\"></div><div class=\"distractor-box\"></div><div class=\"distractor-box active-box\"></div><div class=\"distractor-box active-box\"></div><div class=\"distractor-box\"></div><div class=\"distractor-box active-box\"></div><div class=\"distractor-box\"></div><div class=\"distractor-box\"></div><div class=\"distractor-box active-box\"></div><div class=\"distractor-box\"></div><div class=\"distractor-box active-box\"></div><div class=\"distractor-box\"></div><div class=\"distractor-box active-box\"></div><div class=\"distractor-box active-box\"></div><div class=\"distractor-box active-box\"></div><div class=\"distractor-box active-box\"></div><div class=\"distractor-box active-box\"></div><div class=\"distractor-box active-box\"></div><div class=\"distractor-box\"></div><div class=\"distractor-box active-box\"></div><div class=\"distractor-box active-box\"></div><div class=\"distractor-box active-box\"></div><div class=\"distractor-box\"></div><div class=\"distractor-box\"></div><div class=\"distractor-box active-box\"></div><div class=\"distractor-box active-box\"></div><div class=\"distractor-box active-box\"></div><div class=\"distractor-box active-box\"></div><div class=\"distractor-box\"></div><div class=\"distractor-box\"></div><div class=\"distractor-box\"></div><div class=\"distractor-box\"></div><div class=\"distractor-box\"></div><div class=\"distractor-box\"></div><div class=\"distractor-box active-box\"></div><div class=\"distractor-box\"></div><div class=\"distractor-box active-box\"></div><div class=\"distractor-box active-box\"></div><div class=\"distractor-box\"></div><div class=\"distractor-box\"></div><div class=\"distractor-box active-box\"></div><div class=\"distractor-box active-box\"></div><div class=\"distractor-box\"></div><div class=\"distractor-box active-box\"></div><div class=\"distractor-box\"></div><div class=\"distractor-box active-box\"></div><div class=\"distractor-box\"></div><div class=\"distractor-box\"></div><div class=\"distractor-box active-box\"></div><div class=\"distractor-box\"></div><div class=\"distractor-box active-box\"></div><div class=\"distractor-box active-box\"></div><div class=\"distractor-box active-box\"></div><div class=\"distractor-box\"></div><div class=\"distractor-box\"></div><div class=\"distractor-box\"></div><div class=\"distractor-box\"></div><div class=\"distractor-box active-box\"></div><div class=\"distractor-box active-box\"></div></div>","response":"g","trial_id":"test_inter-stimulus","exp_stage":"test","condition":"operation_only","trial_duration":2500,"stimulus_duration":2500,"block_num":0,"choices":["b","y","g","r","e"],"trial_type":"html-keyboard-resp