[{"rt":3034623,"response":{"P0_Q0":null,"design_perm":5},"accuracy":[],"trial_type":"survey","trial_index":0,"time_elapsed":3034618,"internal_node_id":"0.0-0.0","design_perm":5},{"success":true,"trial_type":"fullscreen","trial_index":1,"time_elapsed":3036404,"internal_node_id":"0.0-1.0"},{"rt":1718,"stimulus":"<div><h1>Please press your index finger.</h1></div>","response":"y","trial_id":"check_index","trial_type":"html-keyboard-response","trial_index":2,"time_elapsed":3038125,"internal_node_id":"0.0-2.0"},{"rt":12428,"stimulus":"<div class=\"bigbox\"><div class=\"picture_box\"><p class=\"block-text\">\n  <div class=\"centerbox\">\n    <p class=\"block-text\">On each trial a solid white or outlined white square will appear on the screen.</p>\n    <p class=\"block-text\">If the square is filled, press your <b>index finger</b>.</p>\n    <p class=\"block-text\">If it is outlined, you should <b>not respond</b>.</p>\n  </div>\n</p></div></div>","response":" ","trial_id":"practice_feedback","exp_stage":"practice","trial_duration":4000,"block_num":0,"trial_type":"html-keyboard-response","trial_index":3,"time_elapsed":3051058,"internal_node_id":"0.0-3.0-0.0","block_level_feedback":{}},{"rt":null,"stimulus":"<div class = centerbox><div class = fixation>+</div></div>","response":null,"trial_id":"practice_ITI","ITIParams":0.5,"block_num":0,"exp_stage":"practice","choices":["b","y","g","r","e"],"trial_type":"html-keyboard-response","trial_index":4,"time_elapsed":3051564,"internal_node_id":"0.0-3.0-1.0","trial_duration":500,"stimulus_duration":500},{"rt":479,"stimulus":"<div class = bigbox><div class = centerbox><div class = gng_number><div class = cue-text><div  id = stim1></div></div></div></div></div>","response":"y","correct_response":"y","condition":"go","trial_id":"practice_trial","trial_duration":1500,"stimulus_duration":1000,"exp_stage":"practice","block_num":0,"choices":["b","y","g","r","e"],"trial_type":"html-keyboard-response","trial_index":5,"time_elapsed":3053071,"internal_node_id":"0.0-3.0-2.0","correct_trial":1,"shape":"filled square"},{"rt":null,"stimulus":"<div class = center-box><div class = center-text>Correct!</div></div>","response":null,"exp_stage":"practice","trial_id":"practice_feedback","trial_duration":500,"stimulus_duration":500,"block_num":0,"choices":["b","y","g","r","e"],"trial_type":"html-keyboard-response","trial_index":6,"time_elapsed":3053577,"internal_node_id":"0.0-3.0-3.0"},{"rt":14764,"stimulus":"<div class=\"bigbox\"><div class=\"picture_box\"><p class=\"block-text\"><div class = centerbox><p class = block-text>Please take a short break.</p></div></p></div></div>","response":" ","trial_id":"test_feedback","exp_stage":"test","trial_duration":4000,"block_num":0,"trial_type":"html-keyboard-response","trial_index":7,"time_elapsed":3068344,"internal_node_id":"0.0-4.0","block_level_feedback":{}},{"rt":7727,"stimulus":"<div><h1>Scanner setup.</h1><h1>Stay as still as possible.</h1><h1>Do not swallow.</h1></div>","response":"enter","trial_id":"fmri_wait_block_initial","trial_type":"html-keyboard-response","trial_index":8,"time_elapsed":3076071,"internal_node_id":"0.0-5.0-0.0"},{"rt":816,"stimulus":"<div><h1>Task about to start!</h1><h1>Stay as still as possible.</h1><h1>Do not swallow.</h1></div>","response":"t","trial_id":"fmri_wait_block_trigger_start","trial_type":"html-keyboard-response","trial_index":9,"time_elapsed":3076889,"internal_node_id":"0.0-5.0-1.0-0.0"},{"rt":null,"stimulus":"<div><h1>Task about to start!</h1><h1>Stay as still as possible.</h1><h1>Do not swallow.</h1></div>","response":null,"trial_id":"fmri_wait_block_trigger_end","block_duration":10430,"trial_type":"html-keyboard-response","trial_index":10,"time_elapsed":3087669,"internal_node_id":"0.0-5.0-1.0-1.0"},{"rt":null,"stimulus":"<div class = centerbox><div class = fixation>+</div></div>","response":null,"trial_id":"test_ITI","ITIParams":null,"block_num":0,"exp_stage":"test","choices":["b","y","g","r","e"],"trial_type":"html-keyboard-response","trial_index":11,"time_elapsed":3088716,"internal_node_id":"0.0-6.0-3.0","trial_duration":1040.9908269033747,"stimulus_duration":1040.9908269033747},{"rt":906,"stimulus":"\n    <div class=\"bigbox\">\n        <div class=\"centerbox\">\n          <div class=\"gng_number\">\n            <div class=\"cue-text\">\n              <div id=\"stim1\"></div>\n            </div>\n          </div>\n        </div>\n      </div>","response":"y","correct_response":"y","condition":"go","trial_id":"test_trial","trial_duration":1500,"stimulus_duration":1000,"exp_stage":"test","block_num":0,"choices":["b","y","g","r","e"],"trial_type":"html-keyboard-response","trial_index":12,"time_elapsed":3090222,"internal_node_id":"0.0-6.0-4.0","correct_trial":1,"shape":"filled square"},{"rt":null,"stimulus":"<div class = centerbox><div class = fixation>+</div></div>","response":null,"trial_id":"test_ITI","ITIParams":null,"block_num":0,"exp_stage":"test","choices":["b","y","g","r","e"],"trial_type":"html-keyboard-response","trial_index":13,"time_elapsed":3090801,"internal_node_id":"0.0-6.0-5.0","trial_duration":573.9367809947371,"stimulus_duration":573.9367809947371},{"rt":602,"stimulus":"\n    <div class=\"bigbox\">\n        <div class=\"centerbox\">\n          <div class=\"gng_number\">\n            <div class=\"cue-text\">\n              <div id=\"stim1\"></div>\n            </div>\n          </div>\n        </div>\n      </div>","response":"y","correct_response":"y","condition":"go","trial_id":"test_trial","trial_duration":1500,"stimulus_duration":1000,"exp_stage":"test","block_num":0,"choices":["b","y","g","r","e"],"trial_type":"html-keyboard-response","trial_index":14,"time_elapsed":3092306,"internal_node_id":"0.0-6.0-6.0","correct_trial":1,"shape":"filled square"},{"rt":null,"stimulus":"<div class = centerbox><div class = fixation>+</div></div>","response":null,"trial_id":"test_ITI","ITIParams":null,"block_num":0,"exp_stage":"test","choices":["b","y","g","r","e"],"trial_type":"html-keyboard-response","trial_index":15,"time_elapsed":3095750,"internal_node_id":"0.0-6.0-7.0","trial_duration":3249.539755089856,"stimulus_duration":3249.539755089856},{"rt":486,"stimulus":"\n    <div class=\"bigbox\">\n        <div class=\"centerbox\">\n          <div class=\"gng_number\">\n            <div class=\"cue-text\">\n              <div id=\"stim1\"></div>\n            </div>\n          </div>\n        </div>\n      </div>","response":"y","correct_response":"y","condition":"go","trial_id":"test_trial","trial_duration":1500,"stimulus_duration":1000,"exp_stage":"test","block_num":0,"choices":["b","y","g","r","e"],"trial_type":"html-keyboard-response","trial_index":16,"time_elapsed":3097254,"internal_node_id":"0.0-6.0-8.0","correct_trial":1,"shape":"filled square"},{"rt":null,"stimulus":"<div class = centerbox><div class = fixation>+</div></div>","response":null,"trial_id":"test_ITI","ITIParams":null,"block_num":0,"exp_stage":"test","choices":["b","y","g","r","e"],"trial_type":"html-keyboard-response","trial_index":17,"time_elapsed":3097794,"internal_node_id":"0.0-6.0-9.0","trial_duration":534.0885952168435,"stimulus_duration":534.0885952168435},{"rt":628,"stimulus":"\n    <div class=\"bigbox\">\n        <div class=\"centerbox\">\n          <div class=\"gng_number\">\n            <div class=\"cue-text\">\n              <div id=\"stim1\"></div>\n            </div>\n          </div>\n        </div>\n      </div>","response":"y","correct_response":"y","condition":"go","trial_id":"test_trial","trial_duration":1500,"stimulus_duration":1000,"exp_stage":"test","block_num":0,"choices":["b","y","g","r","e"],"trial_type":"html-keyboard-response","trial_index":18,"time_elapsed":3099300,"internal_node_id":"0.0-6.0-10.0","correct_trial":1,"shape":"filled square"},{"rt":null,"stimulus":"<div class = centerbox><div class = fixation>+</div></div>","response":null,"trial_id":"test_ITI","ITIParams":null,"block_num":0,"exp_stage":"test","choices":["b","y","g","r","e"],"trial_type":"html-keyboard-response","trial_index":19,"time_elapsed":3099959,"internal_node_id":"0.0-6.0-11.0","trial_duration":654.6394474525492,"stimulus_duration":654.6394474525492},{"rt":708,"stimulus":"\n    <div class=\"bigbox\">\n        <div class=\"centerbox\">\n          <div class=\"gng_number\">\n            <div class=\"cue-text\">\n              <div id=\"stim1\"></div>\n            </div>\n          </div>\n        </div>\n      </div>","response":"y","correct_response":"y","condition":"go","trial_id":"test_trial","trial_duration":1500,"stimulus_duration":1000,"exp_stage":"test","block_num":0,"choices":["b","y","g","r","e"],"trial_type":"html-keyboard-response","trial_index":20,"time_elapsed":3101463,"internal_node_id":"0.0-6.0-12.0","correct_trial":1,"shape":"filled square"},{"rt":null,"stimulus":"<div class = centerbox><div class = fixation>+</div></div>","response":null,"trial_id":"test_ITI","ITIParams":null,"block_num":0,"exp_stage":"test","choices":["b","y","g","r","e"],"trial_type":"html-keyboard-response","trial_index":21,"time_elapsed":3102031,"internal_node_id":"0.0-6.0-13.0","trial_duration":564.1346758643361,"stimulus_duration":564.1346758643361},{"rt":506,"stimulus":"\n    <div class=\"bigbox\">\n        <div class=\"centerbox\">\n          <div class=\"gng_number\">\n            <div class=\"cue-text\">\n              <div id=\"stim1\"></div>\n            </div>\n          </div>\n        </div>\n      </div>","response":"y","correct_response":"y","condition":"go","trial_id":"test_trial","trial_duration":1500,"stimulus_duration":1000,"exp_stage":"test","block_num":0,"choices":["b","y","g","r","e"],"trial_type":"html-keyboard-response","trial_index":22,"time_elapsed":3103537,"internal_node_id":"0.0-6.0-14.0","correct_trial":1,"shape":"filled square"},{"rt":null,"stimulus":"<div class = centerbox><div class = fixation>+</div></div>","response":null,"trial_id":"test_ITI","ITIParams":null,"block_num":0,"exp_stage":"test","choices":["b","y","g","r","e"],"trial_type":"html-keyboard-response","trial_index":23,"time_elapsed":3104318,"internal_node_id":"0.0-6.0-15.0","trial_duration":776.5531981992489,"stimulus_duration":776.5531981992489},{"rt":405,"stimulus":"\n    <div class=\"bigbox\">\n        <div class=\"centerbox\">\n          <div class=\"gng_number\">\n            <div class=\"cue-text\">\n              <div id=\"stim1\"></div>\n            </div>\n          </div>\n        </div>\n      </div>","response":"y","correct_response":"y","condition":"go","trial_id":"test_trial","trial_duration":1500,"stimulus_duration":1000,"exp_stage":"test","block_num":0,"choices":["b","y","g","r","e"],"trial_type":"html-keyboard-response","trial_index":24,"time_elapsed":3105824,"internal_node_id":"0.0-6.0-16.0","correct_trial":1,"shape":"filled square"},{"rt":null,"stimulus":"<div class = centerbox><div class = fixation>+</div></div>","response":null,"trial_id":"test_ITI","ITIParams":null,"block_num":0,"exp_stage":"test","choices":["b","y","g","r","e"],"trial_type":"html-keyboard-response","trial_index":25,"time_elapsed":3107152,"internal_node_id":"0.0-6.0-17.0","trial_duration":1322.411920089351,"stimulus_duration":1322.411920089351},{"rt":457,"stimulus":"\n    <div class=\"bigbox\">\n        <div class=\"centerbox\">\n          <div class=\"gng_number\">\n            <div class=\"cue-text\">\n              <div id=\"stim1\"></div>\n            </div>\n          </div>\n        </div>\n      </div>","response":"y","correct_response":"y","condition":"go","trial_id":"test_trial","trial_duration":1500,"stimulus_duration":1000,"exp_stage":"test","block_num":0,"choices":["b","y","g","r","e"],"trial_type":"html-keyboard-response","trial_index":26,"time_elapsed":3108657,"internal_node_id":"0.0-6.0-18.0","correct_trial":1,"shape":"filled square"},{"rt":null,"stimulus":"<div class = centerbox><div class = fixation>+</div></div>","response":null,"trial_id":"test_ITI","ITIParams":null,"block_num":0,"exp_stage":"test","choices":["b","y","g","r","e"],"trial_type":"html-keyboard-response","trial_index":27,"time_elapsed":3109182,"internal_node_id":"0.0-6.0-19.0","trial_duration":520.2200768893057,"stimulus_duration":520.2200768893057},{"rt":433,"stimulus":"\n    <div class=\"bigbox\">\n        <div class=\"centerbox\">\n          <div class=\"gng_number\">\n            <div class=\"cue-text\">\n              <div id=\"stim1\"></div>\n            </div>\n          </div>\n        </div>\n      </div>","response":"y","correct_response":"y","condition":"go","trial_id":"test_trial","trial_duration":1500,"stimulus_duration":1000,"exp_stage":"test","block_num":0,"choices":["b","y","g","r","e"],"trial_type":"html-keyboard-response","trial_index":28,"time_elapsed":3110684,"internal_node_id":"0.0-6.0-20.0","correct_trial":1,"shape":"filled square"},{"rt":null,"stimulus":"<div class = centerbox><div class = fixation>+</div></div>","response":null,"trial_id":"test_ITI","ITIParams":null,"block_num":0,"exp_stage":"test","choices":["b","y","g","r","e"],"trial_type":"html-keyboard-response","trial_index":29,"time_elapsed":3112244,"internal_node_id":"0.0-6.0-21.0","trial_duration":1555.0188699702617,"stimulus_duration":1555.0188699702617},{"rt":388,"stimulus":"\n    <div class=\"bigbox\">\n        <div class=\"centerbox\">\n          <div class=\"gng_number\">\n            <div class=\"cue-text\">\n              <div id=\"stim1\"></div>\n            </div>\n          </div>\n        </div>\n      </div>","response":"y","correct_response":"y","condition":"go","trial_id":"test_trial","trial_duration":1500,"stimulus_duration":1000,"exp_stage":"test","block_num":0,"choices":["b","y","g","r","e"],"trial_type":"html-keyboard-response","trial_index":30,"time_elapsed":3113750,"internal_node_id":"0.0-6.0-22.0","correct_trial":1,"shape":"filled square"},{"rt":null,"stimulus":"<div class = centerbox><div class = fixation>+</div></div>","response":null,"trial_id":"test_ITI","ITIParams":null,"block_num":0,"exp_stage":"test","choices":["b","y","g","r","e"],"trial_type":"html-keyboard-response","trial_index":31,"time_elapsed":3114719,"internal_node_id":"0.0-6.0-23.0","trial_duration":963.5860419610153,"stimulus_duration":963.5860419610153},{"rt":429,"stimulus":"\n    <div class=\"bigbox\">\n        <div class=\"centerbox\">\n          <div class=\"gng_number\">\n            <div class=\"cue-text\">\n              <div id=\"stim1\"></div>\n            </div>\n          </div>\n        </div>\n      </div>","response":"y","correct_response":"y","condition":"go","trial_id":"test_trial","trial_duration":1500,"stimulus_duration":1000,"exp_stage":"test","block_num":0,"choices":["b","y","g","r","e"],"trial_type":"html-keyboard-response","trial_index":32,"time_elapsed":3116225,"internal_node_id":"0.0-6.0-24.0","correct_trial":1,"shape":"filled square"},{"rt":null,"stimulus":"<div class = centerbox><div class = fixation>+</div></div>","response":null,"trial_id":"test_ITI","ITIParams":null,"block_num":0,"exp_stage":"test","choices":["b","y","g","r","e"],"trial_type":"html-keyboard-response","trial_index":33,"time_elapsed":3117530,"internal_node_id":"0.0-6.0-25.0","trial_duration":1303.3605754180328,"stimulus_duration":1303.3605754180328},{"rt":451,"stimulus":"\n    <div class=\"bigbox\">\n        <div class=\"centerbox\">\n          <div class=\"gng_number\">\n            <div class=\"cue-text\">\n              <div id=\"stim1\"></div>\n            </div>\n          </div>\n        </div>\n      </div>","response":"y","correct_response":"y","condition":"go","trial_id":"test_trial","trial_duration":1500,"stimulus_duration":1000,"exp_stage":"test","block_num":0,"choices":["b","y","g","r","e"],"trial_type":"html-keyboard-response","trial_index":34,"time_elapsed":3119036,"internal_node_id":"0.0-6.0-26.0","correct_trial":1,"shape":"filled square"},{"rt":null,"stimulus":"<div class = centerbox><div class = fixation>+</div></div>","response":null,"trial_id":"test_ITI","ITIParams":null,"block_num":0,"exp_stage":"test","choices":["b","y","g","r","e"],"trial_type":"html-keyboard-response","trial_index":35,"time_elapsed":3119662,"internal_node_id":"0.0-6.0-27.0","trial_duration":621.6399824106844,"stimulus_duration":621.6399824106844},{"rt":435,"stimulus":"\n    <div class=\"bigbox\">\n        <div class=\"centerbox\">\n          <div class=\"gng_number\">\n            <div class=\"cue-text\">\n              <div id=\"stim1\"></div>\n            </div>\n          </div>\n        </div>\n      </div>","response":"y","correct_response":"y","condition":"go","trial_id":"test_trial","trial_duration":1500,"stimulus_duration":1000,"exp_stage":"test","block_num":0,"choices":["b","y","g","r","e"],"trial_type":"html-keyboard-response","trial_index":36,"time_elapsed":3121168,"internal_node_id":"0.0-6.0-28.0","correct_trial":1,"shape":"filled square"},{"rt":null,"stimulus":"<div class = centerbox><div class = fixation>+</div></div>","response":null,"trial_id":"test_ITI","ITIParams":null,"block_num":0,"exp_stage":"test","choices":["b","y","g","r","e"],"trial_type":"html-keyboard-response","trial_index":37,"time_elapsed":3121706,"internal_node_id":"0.0-6.0-29.0","trial_duration":533.647469210365,"stimulus_duration":533.647469210365},{"rt":431,"stimulus":"\n    <div class=\"bigbox\">\n        <div class=\"centerbox\">\n          <div class=\"gng_number\">\n            <div class=\"cue-text\">\n              <div id=\"stim1\"></div>\n            </div>\n          </div>\n        </div>\n      </div>","response":"y","correct_response":"y","condition":"go","trial_id":"test_trial","trial_duration":1500,"stimulus_duration":1000,"exp_stage":"test","block_num":0,"choices":["b","y","g","r","e"],"trial_type":"html-keyboard-response","trial_index":38,"time_elapsed":3123212,"internal_node_id":"0.0-6.0-30.0","correct_trial":1,"shape":"filled square"},{"rt":null,"stimulus":"<div class = centerbox><div class = fixation>+</div></div>","response":null,"trial_id":"test_ITI","ITIParams":null,"block_num":0,"exp_stage":"test","choices":["b","y","g","r","e"],"trial_type":"html-keyboard-response","trial_index":39,"time_elapsed":3124605,"internal_node_id":"0.0-6.0-31.0","trial_duration":1379.8538446621933,"stimulus_duration":1379.8538446621933},{"rt":417,"stimulus":"\n    <div class=\"bigbox\">\n        <div class=\"centerbox\">\n          <div class=\"gng_number\">\n            <div class=\"cue-text\">\n              <div id=\"stim1\"></div>\n            </div>\n          </div>\n        </div>\n      </div>","response":"y","correct_response":"y","condition":"go","trial_id":"test_trial","trial_duration":1500,"stimulus_duration":1000,"exp_stage":"test","block_num":0,"choices":["b","y","g","r","e"],"trial_type":"html-keyboard-response","trial_index":40,"time_elapsed":3126108,"internal_node_id":"0.0-6.0-32.0","correct_trial":1,"shape":"filled square"},{"rt":null,"stimulus":"<div class = centerbox><div class = fixation>+</div></div>","response":null,"trial_id":"test_ITI","ITIParams":null,"block_num":0,"exp_stage":"test","choices":["b","y","g","r","e"],"trial_type":"html-keyboard-response","trial_index":41,"time_elapsed":3126639,"internal_node_id":"0.0-6.0-33.0","trial_duration":524.9030854190196,"stimulus_duration":524.9030854190196},{"rt":null,"stimulus":"\n    <div class=\"bigbox\">\n        <div class=\"centerbox\">\n          <div class=\"gng_number\">\n            <div class=\"cue-text\">\n              <div id=\"stim2\"></div>\n            </div>\n          </div>\n        </div>\n      </div>","response":null,"correct_response":null,"condition":"nogo","trial_id":"test_trial","trial_duration":1500,"stimulus_duration":1000,"exp_stage":"test","block_num":0,"choices":["b","y","g","r","e"],"trial_type":"html-keyboard-response","trial_index":42,"time_elapsed":3128144,"internal_node_id":"0.0-6.0-34.0","correct_trial":1,"shape":"outlined square"},{"rt":null,"stimulus":"<div class = centerbox><div class = fixation>+</div></div>","response":null,"trial_id":"test_ITI","ITIParams":null,"block_num":0,"exp_stage":"test","choices":["b","y","g","r","e"],"trial_type":"html-keyboard-response","trial_index":43,"time_elapsed":3128868,"internal_node_id":"0.0-6.0-35.0","trial_duration":718.486063829971,"stimulus_duration":718.486063829971},{"rt":385,"stimulus":"\n    <div class=\"bigbox\">\n        <div class=\"centerbox\">\n          <div class=\"gng_number\">\n            <div class=\"cue-text\">\n              <div id=\"stim1\"></div>\n            </div>\n          </div>\n        </div>\n      </div>","response":"y","correct_response":"y","condition":"go","trial_id":"test_trial","trial_duration":1500,"stimulus_duration":1000,"exp_stage":"test","block_num":0,"choices":["b","y","g","r","e"],"trial_type":"html-keyboard-response","trial_index":44,"time_elapsed":3130371,"internal_node_id":"0.0-6.0-36.0","correct_trial":1,"shape":"filled square"},{"rt":null,"stimulus":"<div class = centerbox><div class = fixation>+</div></div>","response":null,"trial_id":"test_ITI","ITIParams":null,"block_num":0,"exp_stage":"test","choices":["b","y","g","r","e"],"trial_type":"html-keyboard-response","trial_index":45,"time_elapsed":3131144,"internal_node_id":"0.0-6.0-37.0","trial_duration":770.277358542053,"stimulus_duration":770.277358542053},{"rt":null,"stimulus":"\n    <div class=\"bigbox\">\n        <div class=\"centerbox\">\n          <div class=\"gng_number\">\n            <div class=\"cue-text\">\n              <div id=\"stim2\"></div>\n            </div>\n          </div>\n        </div>\n      </div>","response":null,"correct_response":null,"condition":"nogo","trial_id":"test_trial","trial_duration":1500,"stimulus_duration":1000,"exp_stage":"test","block_num":0,"choices":["b","y","g","r","e"],"trial_type":"html-keyboard-response","trial_index":46,"time_elapsed":3132650,"internal_node_id":"0.0-6.0-38.0","correct_trial":1,"shape":"outlined square"},{"rt":null,"stimulus":"<div class = centerbox><div class = fixation>+</div></div>","response":null,"trial_id":"test_ITI","ITIParams":null,"block_num":0,"exp_stage":"test","choices":["b","y","g","r","e"],"trial_type":"html-keyboard-response","trial_index":47,"time_elapsed":3133341,"internal_node_id":"0.0-6.0-39.0","trial_duration":689.8623871216146,"stimulus_duration":689.8623871216146},{"rt":419,"stimulus":"\n    <div class=\"bigbox\">\n        <div class=\"centerbox\">\n          <div class=\"gng_number\">\n            <div class=\"cue-text\">\n              <div id=\"stim1\"></div>\n            </div>\n          </div>\n        </div>\n      </div>","response":"y","correct_response":"y","condition":"go","trial_id":"test_trial","trial_duration":1500,"stimulus_duration":1000,"exp_stage":"test","block_num":0,"choices":["b","y","g","r","e"],"trial_type":"html-keyboard-response","trial_index":48,"time_elapsed":3134846,"internal_node_id":"0.0-6.0-40.0","correct_trial":1,"shape":"filled square"},{"rt":null,"stimulus":"<div class = centerbox><div class = fixation>+</div></div>","response":null,"trial_id":"test_ITI","ITIParams":null,"block_num":0,"exp_stage":"test","choices":["b","y","g","r","e"],"trial_type":"html-keyboard-response","trial_index":49,"time_elapsed":3135932,"internal_node_id":"0.0-6.0-41.0","trial_duration":1079.6515653728136,"stimulus_duration":1079.6515653728136},{"rt":491,"stimulus":"\n    <div class=\"bigbox\">\n        <div class=\"centerbox\">\n          <div class=\"gng_number\">\n            <div class=\"cue-text\">\n              <div id=\"stim1\"></div>\n            </div>\n          </div>\n        </div>\n      </div>","response":"y","correct_response":"y","condition":"go","trial_id":"test_trial","trial_duration":1500,"stimulus_duration":1000,"exp_stage":"test","block_num":0,"choices":["b","y","g","r","e"],"trial_type":"html-keyboard-response","trial_index":50,"time_elapsed":3137436,"internal_node_id":"0.0-6.0-42.0","correct_trial":1,"shape":"filled square"},{"rt":null,"stimulus":"<div class = centerbox><div class = fixation>+</div></div>","response":null,"trial_id":"test_ITI","ITIParams":null,"block_num":0,"exp_stage":"test","choices":["b","y","g","r","e"],"trial_type":"html-keyboard-response","trial_index":51,"time_elapsed":3139118,"internal_node_id":"0.0-6.0-43.0","trial_duration":1675.9857994158338,"stimulus_duration":1675.9857994158338},{"rt":null,"stimulus":"\n    <div class=\"bigbox\">\n        <div class=\"centerbox\">\n          <div class=\"gng_number\">\n            <div class=\"cue-text\">\n              <div id=\"stim2\"></div>\n            </div>\n          </div>\n        </div>\n      </div>","response":null,"correct_response":null,"condition":"nogo","trial_id":"test_trial","trial_duration":1500,"stimulus_duration":1000,"exp_stage":"test","block_num":0,"choices":["b","y","g","r","e"],"trial_type":"html-keyboard-response","trial_index":52,"time_elapsed":3140623,"internal_node_id":"0.0-6.0-44.0","correct_trial":1,"shape":"outlined square"},{"rt":null,"stimulus":"<div class = centerbox><div class = fixation>+</div></div>","response":null,"trial_id":"test_ITI","ITIParams":null,"block_num":0,"exp_stage":"test","choices":["b","y","g","r","e"],"trial_type":"html-keyboard-response","trial_index":53,"time_elapsed":3141132,"internal_node_id":"0.0-6.0-45.0","trial_duration":503.7258151468862,"stimulus_duration":503.7258151468862},{"rt":490,"stimulus":"\n    <div class=\"bigbox\">\n        <div class=\"centerbox\">\n          <div class=\"gng_number\">\n            <div class=\"cue-text\">\n              <div id=\"stim1\"></div>\n            </div>\n          </div>\n        </div>\n      </div>","response":"y","correct_response":"y","condition":"go","trial_id":"test_trial","trial_duration":1500,"stimulus_duration":1000,"exp_stage":"test","block_num":0,"choices":["b","y","g","r","e"],"trial_type":"html-keyboard-response","trial_index":54,"time_elapsed":3142634,"internal_node_id":"0.0-6.0-46.0","correct_trial":1,"shape":"filled square"},{"rt":null,"stimulus":"<div class = centerbox><div class = fixation>+</div></div>","response":null,"trial_id":"test_ITI","ITIParams":null,"block_num":0,"exp_stage":"test","choices":["b","y","g","r","e"],"trial_type":"html-keyboard-response","trial_index":55,"time_elapsed":3143649,"internal_node_id":"0.0-6.0-47.0","trial_duration":1009.302978302891,"stimulus_duration":1009.302978302891},{"rt":423,"stimulus":"\n    <div class=\"bigbox\">\n        <div class=\"centerbox\">\n          <div class=\"gng_number\">\n            <div class=\"cue-text\">\n              <div id=\"stim1\"></div>\n            </div>\n          </div>\n        </div>\n      </div>","response":"y","correct_response":"y","condition":"go","trial_id":"test_trial","trial_duration":1500,"stimulus_duration":1000,"exp_stage":"test","block_num":0,"choices":["b","y","g","r","e"],"trial_type":"html-keyboard-response","trial_index":56,"time_elapsed":3145151,"internal_node_id":"0.0-6.0-48.0","correct_trial":1,"shape":"filled square"},{"rt":null,"stimulus":"<div class = centerbox><div class = fixation>+</div></div>","response":null,"trial_id":"test_ITI","ITIParams":null,"block_num":0,"exp_stage":"test","choices":["b","y","g","r","e"],"trial_type":"html-keyboard-response","trial_index":57,"time_elapsed":3146146,"internal_node_id":"0.0-6.0-49.0","trial_duration":989.764085727181,"stimulus_duration":989.764085727181},{"rt":454,"stimulus":"\n    <div class=\"bigbox\">\n        <div class=\"centerbox\">\n          <div class=\"gng_number\">\n            <div class=\"cue-text\">\n              <div id=\"stim1\"></div>\n            </div>\n          </div>\n        </div>\n      </div>","response":"y","correct_response":"y","condition":"go","trial_id":"test_trial","trial_duration":1500,"stimulus_duration":1000,"exp_stage":"test","block_num":0,"choices":["b","y","g","r","e"],"trial_type":"html-keyboard-response","trial_index":58,"time_elapsed":3147652,"internal_node_id":"0.0-6.0-50.0","correct_trial":1,"shape":"filled square"},{"rt":null,"stimulus":"<div class = centerbox><div class = fixation>+</div></div>","response":null,"trial_id":"test_ITI","ITIParams":null,"block_num":0,"exp_stage":"test","choices":["b","y","g","r","e"],"trial_type":"html-keyboard-response","trial_index":59,"time_elapsed":3148471,"internal_node_id":"0.0-6.0-51.0","trial_duration":815.7538789610754,"stimulus_duration":815.7538789610754},{"rt":406,"stimulus":"\n    <div class=\"bigbox\">\n        <div class=\"centerbox\">\n          <div class=\"gng_number\">\n            <div class=\"cue-text\">\n              <div id=\"stim1\"></div>\n            </div>\n          </div>\n        </div>\n      </div>","response":"y","correct_response":"y","condition":"go","trial_id":"test_trial","trial_duration":1500,"stimulus_duration":1000,"exp_stage":"test","block_num":0,"choices":["b","y","g","r","e"],"trial_type":"html-keyboard-response","trial_index":60,"time_elapsed":3149977,"internal_node_id":"0.0-6.0-52.0","correct_trial":1,"shape":"filled square"},{"rt":null,"stimulus":"<div class = centerbox><div class = fixation>+</div></div>","response":null,"trial_id":"test_ITI","ITIParams":null,"block_num":0,"exp_stage":"test","choices":["b","y","g","r","e"],"trial_type":"html-keyboard-response","trial_index":61,"time_elapsed":3150551,"internal_node_id":"0.0-6.0-53.0","trial_duration":568.7817213620576,"stimulus_duration":568.7817213620576},{"rt":null,"stimulus":"\n    <div class=\"bigbox\">\n        <div class=\"centerbox\">\n          <div class=\"gng_number\">\n            <div class=\"cue-text\">\n              <div id=\"stim2\"></div>\n            </div>\n          </div>\n        </div>\n      </div>","response":null,"correct_response":null,"condition":"nogo","trial_id":"test_trial","trial_duration":1500,"stimulus_duration":1000,"exp_stage":"test","block_num":0,"choices":["b","y","g","r","e"],"trial_type":"html-keyboard-response","trial_index":62,"time_elapsed":3152057,"internal_node_id":"0.0-6.0-54.0","correct_trial":1,"shape":"outlined square"},{"rt":null,"stimulus":"<div class = centerbox><div class = fixation>+</div></div>","response":null,"trial_id":"test_ITI","ITIParams":null,"block_num":0,"exp_stage":"test","choices":["b","y","g","r","e"],"trial_type":"html-keyboard-response","trial_index":63,"time_elapsed":3153488,"internal_node_id":"0.0-6.0-55.0","trial_duration":1427.9492705612356,"stimulus_duration":1427.9492705612356},{"rt":837,"stimulus":"\n    <div class=\"bigbox\">\n        <div class=\"centerbox\">\n          <div class=\"gng_number\">\n            <div class=\"cue-text\">\n              <div id=\"stim1\"></div>\n            </div>\n          </div>\n        </div>\n      </div>","response":"y","correct_response":"y","condition":"go","trial_id":"test_trial","trial_duration":1500,"stimulus_duration":1000,"exp_stage":"test","block_num":0,"choices":["b","y","g","r","e"],"trial_type":"html-keyboard-response","trial_index":64,"time_elapsed":3154994,"internal_node_id":"0.0-6.0-56.0","correct_trial":1,"shape":"filled square"},{"rt":null,"stimulus":"<div class = centerbox><div class = fixation>+</div></div>","response":null,"trial_id":"test_ITI","ITIParams":null,"block_num":0,"exp_stage":"test","choices":["b","y","g","r","e"],"trial_type":"html-keyboard-response","trial_index":65,"time_elapsed":3155734,"internal_node_id":"0.0-6.0-57.0","trial_duration":734.1204061070243,"stimulus_duration":734.1204061070243},{"rt":410,"stimulus":"\n    <div class=\"bigbox\">\n        <div class=\"centerbox\">\n          <div class=\"gng_number\">\n            <div class=\"cue-text\">\n              <div id=\"stim1\"></div>\n            </div>\n          </div>\n        </div>\n      </div>","response":"y","correct_response":"y","condition":"go","trial_id":"test_trial","trial_duration":1500,"stimulus_duration":1000,"exp_stage":"test","block_num":0,"choices":["b","y","g","r","e"],"trial_type":"html-keyboard-response","trial_index":66,"time_elapsed":3157249,"internal_node_id":"0.0-6.0-58.0","correct_trial":1,"shape":"filled square"},{"rt":null,"stimulus":"<div class = centerbox><div class = fixation>+</div></div>","response":null,"trial_id":"test_ITI","ITIParams":null,"block_num":0,"exp_stage":"test","choices":["b","y","g","r","e"],"trial_type":"html-keyboard-response","trial_index":67,"time_elapsed":3159031,"internal_node_id":"0.0-6.0-59.0","trial_duration":1778.3395436637902,"stimulus_duration":1778.3395436637902},{"rt":403,"stimulus":"\n    <div class=\"bigbox\">\n        <div class=\"centerbox\">\n          <div class=\"gng_number\">\n            <div class=\"cue-text\">\n              <div id=\"stim1\"></div>\n            </div>\n          </div>\n        </div>\n      </div>","response":"y","correct_response":"y","condition":"go","trial_id":"test_trial","trial_duration":1500,"stimulus_duration":1000,"exp_stage":"test","block_num":0,"choices":["b","y","g","r","e"],"trial_type":"html-keyboard-response","trial_index":68,"time_elapsed":3160533,"internal_node_id":"0.0-6.0-60.0","correct_trial":1,"shape":"filled square"},{"rt":null,"stimulus":"<div class = centerbox><div class = fixation>+</div></div>","response":null,"trial_id":"test_ITI","ITIParams":null,"block_num":0,"exp_stage":"test","choices":["b","y","g","r","e"],"trial_type":"html-keyboard-response","trial_index":69,"time_elapsed":3163404,"internal_node_id":"0.0-6.0-61.0","trial_duration":2554.617993777981,"stimulus_duration":2554.617993777981},{"rt":453,"stimulus":"\n    <div class=\"bigbox\">\n        <div class=\"centerbox\">\n          <div class=\"gng_number\">\n            <div class=\"cue-text\">\n              <div id=\"stim1\"></div>\n            </div>\n          </div>\n        </div>\n      </div>","response":"y","correct_response":"y","condition":"go","trial_id":"test_trial","trial_duration":1500,"stimulus_duration":1000,"exp_stage":"test","block_num":0,"choices":["b","y","g","r","e"],"trial_type":"html-keyboard-response","trial_index":70,"time_elapsed":3164910,"internal_node_id":"0.0-6.0-62.0","correct_trial":1,"shape":"filled square"},{"rt":null,"stimulus":"<div class = centerbox><div class = fixation>+</div></div>","response":null,"trial_id":"test_ITI","ITIParams":null,"block_num":0,"exp_stage":"test","choices":["b","y","g","r","e"],"trial_type":"html-keyboard-response","trial_index":71,"time_elapsed":3165717,"internal_node_id":"0.0-6.0-63.0","trial_duration":801.9643141337411,"stimulus_duration":801.9643141337411},{"rt":437,"stimulus":"\n    <div class=\"bigbox\">\n        <div class=\"centerbox\">\n          <div class=\"gng_number\">\n            <div class=\"cue-text\">\n              <div id=\"stim1\"></div>\n            </div>\n          </div>\n        </div>\n      </div>","response":"y","correct_response":"y","condition":"go","trial_id":"test_trial","trial_duration":1500,"stimulus_duration":1000,"exp_stage":"test","block_num":0,"choices":["b","y","g","r","e"],"trial_type":"html-keyboard-response","trial_index":72,"time_elapsed":3167222,"internal_node_id":"0.0-6.0-64.0","correct_trial":1,"shape":"filled square"},{"rt":null,"stimulus":"<div class = centerbox><div class = fixation>+</div></div>","response":null,"trial_id":"test_ITI","ITIParams":null,"block_num":0,"exp_stage":"test","choices":["b","y","g","r","e"],"trial_type":"html-keyboard-response","trial_index":73,"time_elapsed":3168482,"internal_node_id":"0.0-6.0-65.0","trial_duration":1254.4429672443016,"stimulus_duration":1254.4429672443016},{"rt":445,"stimulus":"\n    <div class=\"bigbox\">\n        <div class=\"centerbox\">\n          <div class=\"gng_number\">\n            <div class=\"cue-text\">\n              <div id=\"stim1\"></div>\n            </div>\n          </div>\n        </div>\n      </div>","response":"y","correct_response":"y","condition":"go","trial_id":"test_trial","trial_duration":1500,"stimulus_duration":1000,"exp_stage":"test","block_num":0,"choices":["b","y","g","r","e"],"trial_type":"html-keyboard-response","trial_index":74,"time_elapsed":3169986,"internal_node_id":"0.0-6.0-66.0","correct_trial":1,"shape":"filled square"},{"rt":null,"stimulus":"<div class = centerbox><div class = fixation>+</div></div>","response":null,"trial_id":"test_ITI","ITIParams":null,"block_num":0,"exp_stage":"test","choices":["b","y","g","r","e"],"trial_type":"html-keyboard-response","trial_index":75,"time_elapsed":3170666,"internal_node_id":"0.0-6.0-67.0","trial_duration":680.3430026862856,"stimulus_duration":680.3430026862856},{"rt":419,"stimulus":"\n    <div class=\"bigbox\">\n        <div class=\"centerbox\">\n          <div class=\"gng_number\">\n            <div class=\"cue-text\">\n              <div id=\"stim1\"></div>\n            </div>\n          </div>\n        </div>\n      </div>","response":"y","correct_response":"y","condition":"go","trial_id":"test_trial","trial_duration":1500,"stimulus_duration":1000,"exp_stage":"test","block_num":0,"choices":["b","y","g","r","e"],"trial_type":"html-keyboard-response","trial_index":76,"time_elapsed":3172172,"internal_node_id":"0.0-6.0-68.0","correct_trial":1,"shape":"filled square"},{"rt":null,"stimulus":"<div class = centerbox><div class = fixation>+</div></div>","response":null,"trial_id":"test_ITI","ITIParams":null,"block_num":0,"exp_stage":"test","choices":["b","y","g","r","e"],"trial_type":"html-keyboard-response","trial_index":77,"time_elapsed":3173863,"internal_node_id":"0.0-6.0-69.0","trial_duration":1686.0665936481355,"stimulus_duration":1686.0665936481355},{"rt":378,"stimulus":"\n    <div class=\"bigbox\">\n        <div class=\"centerbox\">\n          <div class=\"gng_number\">\n            <div class=\"cue-text\">\n              <div id=\"stim1\"></div>\n            </div>\n          </div>\n        </div>\n      </div>","response":"y","correct_response":"y","condition":"go","trial_id":"test_trial","trial_duration":1500,"stimulus_duration":1000,"exp_stage":"test","block_num":0,"choices":["b","y","g","r","e"],"trial_type":"html-keyboard-response","trial_index":78,"time_elapsed":3175368,"internal_node_id":"0.0-6.0-70.0","correct_trial":1,"shape":"filled square"},{"rt":null,"stimulus":"<div class = centerbox><div class = fixation>+</div></div>","response":null,"trial_id":"test_ITI","ITIParams":null,"block_num":0,"exp_stage":"test","choices":["b","y","g","r","e"],"trial_type":"html-keyboard-response","trial_index":79,"time_elapsed":3176071,"internal_node_id":"0.0-6.0-71.0","trial_duration":699.5996947138394,"stimulus_duration":699.5996947138394},{"rt":424,"stimulus":"\n    <div class=\"bigbox\">\n        <div class=\"centerbox\">\n          <div class=\"gng_number\">\n            <div class=\"cue-text\">\n              <div id=\"stim1\"></div>\n            </div>\n          </div>\n        </div>\n      </div>","response":"y","correct_response":"y","condition":"go","trial_id":"test_trial","trial_duration":1500,"stimulus_duration":1000,"exp_stage":"test","block_num":0,"choices":["b","y","g","r","e"],"trial_type":"html-keyboard-response","trial_index":80,"time_elapsed":3177574,"internal_node_id":"0.0-6.0-72.0","correct_trial":1,"shape":"filled square"},{"rt":null,"stimulus":"<div class = centerbox><div class = fixation>+</div></div>","response":null,"trial_id":"test_ITI","ITIParams":null,"block_num":0,"exp_stage":"test","choices":["b","y","g","r","e"],"trial_type":"html-keyboard-response","trial_index":81,"time_elapsed":3178880,"internal_node_id":"0.0-6.0-73.0","trial_duration":1304.7452692421189,"stimulus_duration":1304.7452692421189},{"rt":414,"stimulus":"\n    <div class=\"bigbox\">\n        <div class=\"centerbox\">\n          <div class=\"gng_number\">\n            <div class=\"cue-text\">\n              <div id=\"stim1\"></div>\n            </div>\n          </div>\n        </div>\n      </div>","response":"y","correct_response":"y","condition":"go","trial_id":"test_trial","trial_duration":1500,"stimulus_duration":1000,"exp_stage":"test","block_num":0,"choices":["b","y","g","r","e"],"trial_type":"html-keyboard-response","trial_index":82,"time_elapsed":3180385,"internal_node_id":"0.0-6.0-74.0","correct_trial":1,"shape":"filled square"},{"rt":null,"stimulus":"<div class = centerbox><div class = fixation>+</div></div>","response":null,"trial_id":"test_ITI","ITIParams":null,"block_num":0,"exp_stage":"test","choices":["b","y","g","r","e"],"trial_type":"html-keyboard-response","trial_index":83,"time_elapsed":3183468,"internal_node_id":"0.0-6.0-75.0","trial_duration":3056.678188978381,"stimulus_duration":3056.678188978381},{"rt":380,"stimulus":"\n    <div class=\"bigbox\">\n        <div class=\"centerbox\">\n          <div class=\"gng_number\">\n            <div class=\"cue-text\">\n              <div id=\"stim1\"></div>\n            </div>\n          </div>\n        </div>\n      </div>","response":"y","correct_response":"y","condition":"go","trial_id":"test_trial","trial_duration":1500,"stimulus_duration":1000,"exp_stage":"test","block_num":0,"choices":["b","y","g","r","e"],"trial_type":"html-keyboard-response","trial_index":84,"time_elapsed":3184974,"internal_node_id":"0.0-6.0-76.0","correct_trial":1,"shape":"filled square"},{"rt":null,"stimulus":"<div class = centerbox><div class = fixation>+</div></div>","response":null,"trial_id":"test_ITI","ITIParams":null,"block_num":0,"exp_stage":"test","choices":["b","y","g","r","e"],"trial_type":"html-keyboard-response","trial_index":85,"time_elapsed":3185506,"internal_node_id":"0.0-6.0-77.0","trial_duration":527.9269858777127,"stimulus_duration":527.9269858777127},{"rt":403,"stimulus":"\n    <div class=\"bigbox\">\n        <div class=\"centerbox\">\n          <div class=\"gng_number\">\n            <div class=\"cue-text\">\n              <div id=\"stim1\"></div>\n            </div>\n          </div>\n        </div>\n      </div>","response":"y","correct_response":"y","condition":"go","trial_id":"test_trial","trial_duration":1500,"stimulus_duration":1000,"exp_stage":"test","block_num":0,"choices":["b","y","g","r","e"],"trial_type":"html-keyboard-response","trial_index":86,"time_elapsed":3187012,"internal_node_id":"0.0-6.0-78.0","correct_trial":1,"shape":"filled square"},{"rt":null,"stimulus":"<div class = centerbox><div class = fixation>+</div></div>","response":null,"trial_id":"test_ITI","ITIParams":null,"block_num":0,"exp_stage":"test","choices":["b","y","g","r","e"],"trial_type":"html-keyboard-response","trial_index":87,"time_elapsed":3188371,"internal_node_id":"0.0-6.0-79.0","trial_duration":1354.7705923136987,"stimulus_duration":1354.7705923136987},{"rt":null,"stimulus":"\n    <div class=\"bigbox\">\n        <div class=\"centerbox\">\n          <div class=\"gng_number\">\n            <div class=\"cue-text\">\n              <div id=\"stim2\"></div>\n            </div>\n          </div>\n        </div>\n      </div>","response":null,"correct_response":null,"condition":"nogo","trial_id":"test_trial","trial_duration":1500,"stimulus_duration":1000,"exp_stage":"test","block_num":0,"choices":["b","y","g","r","e"],"trial_type":"html-keyboard-response","trial_index":88,"time_elapsed":3189878,"internal_node_id":"0.0-6.0-80.0","correct_trial":1,"shape":"outlined square"},{"rt":null,"stimulus":"<div class = centerbox><div class = fixation>+</div></div>","response":null,"trial_id":"test_ITI","ITIParams":null,"block_num":0,"exp_stage":"test","choices":["b","y","g","r","e"],"trial_type":"html-keyboard-response","trial_index":89,"time_elapsed":3190415,"internal_node_id":"0.0-6.0-81.0","trial_duration":532.5737379688888,"stimulus_duration":532.5737379688888},{"rt":453,"stimulus":"\n    <div class=\"bigbox\">\n        <div class=\"centerbox\">\n          <div class=\"gng_number\">\n            <div class=\"cue-text\">\n              <div id=\"stim1\"></div>\n            </div>\n          </div>\n        </div>\n      </div>","response":"y","correct_response":"y","condition":"go","trial_id":"test_trial","trial_duration":1500,"stimulus_duration":1000,"exp_stage":"test","block_num":0,"choices":["b","y","g","r","e"],"trial_type":"html-keyboard-response","trial_index":90,"time_elapsed":3191917,"internal_node_id":"0.0-6.0-82.0","correct_trial":1,"shape":"filled square"},{"rt":null,"stimulus":"<div class = centerbox><div class = fixation>+</div></div>","response":null,"trial_id":"test_ITI","ITIParams":null,"block_num":0,"exp_stage":"test","choices":["b","y","g","r","e"],"trial_type":"html-keyboard-response","trial_index":91,"time_elapsed":3192901,"internal_node_id":"0.0-6.0-83.0","trial_duration":980.7955322907986,"stimulus_duration":980.7955322907986},{"rt":378,"stimulus":"\n    <div class=\"bigbox\">\n        <div class=\"centerbox\">\n          <div class=\"gng_number\">\n            <div class=\"cue-text\">\n              <div id=\"stim1\"></div>\n            </div>\n          </div>\n        </div>\n      </div>","response":"y","correct_response":"y","condition":"go","trial_id":"test_trial","trial_duration":1500,"stimulus_duration":1000,"exp_stage":"test","block_num":0,"choices":["b","y","g","r","e"],"trial_type":"html-keyboard-response","trial_index":92,"time_elapsed":3194406,"internal_node_id":"0.0-6.0-84.0","correct_trial":1,"shape":"filled square"},{"rt":null,"stimulus":"<div class = centerbox><div class = fixation>+</div></div>","response":null,"trial_id":"test_ITI","ITIParams":null,"block_num":0,"exp_stage":"test","choices":["b","y","g","r","e"],"trial_type":"html-keyboard-response","trial_index":93,"time_elapsed":3195188,"internal_node_id":"0.0-6.0-85.0","trial_duration":776.874900449755,"stimulus_duration":776.874900449755},{"rt":413,"stimulus":"\n    <div class=\"bigbox\">\n        <div class=\"centerbox\">\n          <div class=\"gng_number\">\n            <div class=\"cue-text\">\n              <div id=\"stim1\"></div>\n            </div>\n          </div>\n        </div>\n      </div>","response":"y","correct_response":"y","condition":"go","trial_id":"test_trial","trial_duration":1500,"stimulus_duration":1000,"exp_stage":"test","block_num":0,"choices":["b","y","g","r","e"],"trial_type":"html-keyboard-response","trial_index":94,"time_elapsed":3196694,"internal_node_id":"0.0-6.0-86.0","correct_trial":1,"shape":"filled square"},{"rt":null,"stimulus":"<div class = centerbox><div class = fixation>+</div></div>","response":null,"trial_id":"test_ITI","ITIParams":null,"block_num":0,"exp_stage":"test","choices":["b","y","g","r","e"],"trial_type":"html-keyboard-response","trial_index":95,"time_elapsed":3197715,"internal_node_id":"0.0-6.0-87.0","trial_duration":1016.7746217714182,"stimulus_duration":1016.7746217714182},{"rt":381,"stimulus":"\n    <div class=\"bigbox\">\n        <div class=\"centerbox\">\n          <div class=\"gng_number\">\n            <div class=\"cue-text\">\n              <div id=\"stim1\"></div>\n            </div>\n          </div>\n        </div>\n      </div>","response":"y","correct_response":"y","condition":"go","trial_id":"test_trial","trial_duration":1500,"stimulus_duration":1000,"exp_stage":"test","block_num":0,"choices":["b","y","g","r","e"],"trial_type":"html-keyboard-response","trial_index":96,"time_elapsed":3199222,"internal_node_id":"0.0-6.0-88.0","correct_trial":1,"shape":"filled square"},{"rt":null,"stimulus":"<div class = centerbox><div class = fixation>+</div></div>","response":null,"trial_id":"test_ITI","ITIParams":null,"block_num":0,"exp_stage":"test","choices":["b","y","g","r","e"],"trial_type":"html-keyboard-response","trial_index":97,"time_elapsed":3200164,"internal_node_id":"0.0-6.0-89.0","trial_duration":937.7319629587646,"stimulus_duration":937.7319629587646},{"rt":468,"stimulus":"\n    <div class=\"bigbox\">\n        <div class=\"centerbox\">\n          <div class=\"gng_number\">\n            <div class=\"cue-text\">\n              <div id=\"stim1\"></div>\n            </div>\n          </div>\n        </div>\n      </div>","response":"y","correct_response":"y","condition":"go","trial_id":"test_trial","trial_duration":1500,"stimulus_duration":1000,"exp_stage":"test","block_num":0,"choices":["b","y","g","r","e"],"trial_type":"html-keyboard-response","trial_index":98,"time_elapsed":3201668,"internal_node_id":"0.0-6.0-90.0","correct_trial":1,"shape":"filled square"},{"rt":null,"stimulus":"<div class = centerbox><div class = fixation>+</div></div>","response":null,"trial_id":"test_ITI","ITIParams":null,"block_num":0,"exp_stage":"test","choices":["b","y","g","r","e"],"trial_type":"html-keyboard-response","trial_index":99,"time_elapsed":3202306,"internal_node_id":"0.0-6.0-91.0","trial_duration":636.6197421606188,"stimulus_duration":636.6197421606188},{"rt":418,"stimulus":"\n    <div class=\"bigbox\">\n        <div class=\"centerbox\">\n          <div class=\"gng_number\">\n            <div class=\"cue-text\">\n              <div id=\"stim1\"></div>\n            </div>\n          </div>\n        </div>\n      </div>","response":"y","correct_response":"y","condition":"go","trial_id":"test_trial","trial_duration":1500,"stimulus_duration":1000,"exp_stage":"test","block_num":0,"choices":["b","y","g","r","e"],"trial_type":"html-keyboard-response","trial_index":100,"time_elapsed":3203807,"internal_node_id":"0.0-6.0-92.0","correct_trial":1,"shape":"filled square"},{"rt":null,"stimulus":"<div class = centerbox><div class = fixation>+</div></div>","response":null,"trial_id":"test_ITI","ITIParams":null,"block_num":0,"exp_stage":"test","choices":["b","y","g","r","e"],"trial_type":"html-keyboard-response","trial_index":101,"time_elapsed":3204851,"internal_node_id":"0.0-6.0-93.0","trial_duration":1038.1443437448752,"stimulus_duration":1038.1443437448752},{"rt":null,"stimulus":"\n    <div class=\"bigbox\">\n        <div class=\"centerbox\">\n          <div class=\"gng_number\">\n            <div class=\"cue-text\">\n              <div id=\"stim2\"></div>\n            </div>\n          </div>\n        </div>\n      </div>","response":null,"correct_response":null,"condition":"nogo","trial_id":"test_trial","trial_duration":1500,"stimulus_duration":1000,"exp_stage":"test","block_num":0,"choices":["b","y","g","r","e"],"trial_type":"html-keyboard-response","trial_index":102,"time_elapsed":3206357,"internal_node_id":"0.0-6.0-94.0","correct_trial":1,"shape":"outlined square"},{"rt":null,"stimulus":"<div class = centerbox><div class = fixation>+</div></div>","response":null,"trial_id":"test_ITI","ITIParams":null,"block_num":0,"exp_stage":"test","choices":["b","y","g","r","e"],"trial_type":"html-keyboard-response","trial_index":103,"time_elapsed":3207869,"internal_node_id":"0.0-6.0-95.0","trial_duration":1506.3179449195018,"stimulus_duration":1506.3179449195018},{"rt":null,"stimulus":"\n    <div class=\"bigbox\">\n        <div class=\"centerbox\">\n          <div class=\"gng_number\">\n            <div class=\"cue-text\">\n              <div id=\"stim2\"></div>\n            </div>\n          </div>\n        </div>\n      </div>","response":null,"correct_response":null,"condition":"nogo","trial_id":"test_trial","trial_duration":1500,"stimulus_duration":1000,"exp_stage":"test","block_num":0,"choices":["b","y","g","r","e"],"trial_type":"html-keyboard-response","trial_index":104,"time_elapsed":3209375,"internal_node_id":"0.0-6.0-96.0","correct_trial":1,"shape":"outlined square"},{"rt":null,"stimulus":"<div class = centerbox><div class = fixation>+</div></div>","response":null,"trial_id":"test_ITI","ITIParams":null,"block_num":0,"exp_stage":"test","choices":["b","y","g","r","e"],"trial_type":"html-keyboard-response","trial_index":105,"time_elapsed":3209908,"internal_node_id":"0.0-6.0-97.0","trial_duration":531.1987272581007,"stimulus_duration":531.1987272581007},{"rt":766,"stimulus":"\n    <div class=\"bigbox\">\n        <div class=\"centerbox\">\n          <div class=\"gng_number\">\n            <div class=\"cue-text\">\n              <div id=\"stim1\"></div>\n            </div>\n          </div>\n        </div>\n      </div>","response":"y","correct_response":"y","condition":"go","trial_id":"test_trial","trial_duration":1500,"stimulus_duration":1000,"exp_stage":"test","block_num":0,"choices":["b","y","g","r","e"],"trial_type":"html-keyboard-response","trial_index":106,"time_elapsed":3211414,"internal_node_id":"0.0-6.0-98.0","correct_trial":1,"shape":"filled square"},{"rt":null,"stimulus":"<div class = centerbox><div class = fixation>+</div></div>","response":null,"trial_id":"test_ITI","ITIParams":null,"block_num":0,"exp_stage":"test","choices":["b","y","g","r","e"],"trial_type":"html-keyboard-response","trial_index":107,"time_elapsed":3211960,"internal_node_id":"0.0-6.0-99.0","trial_duration":540.6513212139288,"stimulus_duration":540.6513212139288},{"rt":446,"stimulus":"\n    <div class=\"bigbox\">\n        <div class=\"centerbox\">\n          <div class=\"gng_number\">\n            <div class=\"cue-text\">\n              <div id=\"stim1\"></div>\n            </div>\n          </div>\n        </div>\n      </div>","response":"y","correct_response":"y","condition":"go","trial_id":"test_trial","trial_duration":1500,"stimulus_duration":1000,"exp_stage":"test","block_num":0,"choices":["b","y","g","r","e"],"trial_type":"html-keyboard-response","trial_index":108,"time_elapsed":3213463,"internal_node_id":"0.0-6.0-100.0","correct_trial":1,"shape":"filled square"},{"rt":null,"stimulus":"<div class = centerbox><div class = fixation>+</div></div>","response":null,"trial_id":"test_ITI","ITIParams":null,"block_num":0,"exp_stage":"test","choices":["b","y","g","r","e"],"trial_type":"html-keyboard-response","trial_index":109,"time_elapsed":3214130,"internal_node_id":"0.0-6.0-101.0","trial_duration":662.9066845244722,"stimulus_duration":662.9066845244722},{"rt":391,"stimulus":"\n    <div class=\"bigbox\">\n        <div class=\"centerbox\">\n          <div class=\"gng_number\">\n            <div class=\"cue-text\">\n              <div id=\"stim1\"></div>\n            </div>\n          </div>\n        </div>\n      </div>","response":"y","correct_response":"y","condition":"go","trial_id":"test_trial","trial_duration":1500,"stimulus_duration":1000,"exp_stage":"test","block_num":0,"choices":["b","y","g","r","e"],"trial_type":"html-keyboard-response","trial_index":110,"time_elapsed":3215636,"internal_node_id":"0.0-6.0-102.0","correct_trial":1,"shape":"filled square"},{"rt":null,"stimulus":"<div class = centerbox><div class = fixation>+</div></div>","response":null,"trial_id":"test_ITI","ITIParams":null,"block_num":0,"exp_stage":"test","choices":["b","y","g","r","e"],"trial_type":"html-keyboard-response","trial_index":111,"time_elapsed":3216818,"internal_node_id":"0.0-6.0-103.0","trial_duration":1177.571392280214,"stimulus_duration":1177.571392280214},{"rt":null,"stimulus":"\n    <div class=\"bigbox\">\n        <div class=\"centerbox\">\n          <div class=\"gng_number\">\n            <div class=\"cue-text\">\n              <div id=\"stim2\"></div>\n            </div>\n          </div>\n        </div>\n      </div>","response":null,"correct_response":null,"condition":"nogo","trial_id":"test_trial","trial_duration":1500,"stimulus_duration":1000,"exp_stage":"test","block_num":0,"choices":["b","y","g","r","e"],"trial_type":"html-keyboard-response","trial_index":112,"time_elapsed":3218324,"internal_node_id":"0.0-6.0-104.0","correct_trial":1,"shape":"outlined square"},{"rt":null,"stimulus":"<div class = centerbox><div class = fixation>+</div></div>","response":null,"trial_id":"test_ITI","ITIParams":null,"block_num":0,"exp_stage":"test","choices":["b","y","g","r","e"],"trial_type":"html-keyboard-response","trial_index":113,"time_elapsed":3219032,"internal_node_id":"0.0-6.0-105.0","trial_duration":706.0846688143272,"stimulus_duration":706.0846688143272},{"rt":487,"stimulus":"\n    <div class=\"bigbox\">\n        <div class=\"centerbox\">\n          <div class=\"gng_number\">\n            <div class=\"cue-text\">\n              <div id=\"stim1\"></div>\n            </div>\n          </div>\n        </div>\n      </div>","response":"y","correct_response":"y","condition":"go","trial_id":"test_trial","trial_duration":1500,"stimulus_duration":1000,"exp_stage":"test","block_num":0,"choices":["b","y","g","r","e"],"trial_type":"html-keyboard-response","trial_index":114,"time_elapsed":3220538,"internal_node_id":"0.0-6.0-106.0","correct_trial":1,"shape":"filled square"},{"rt":null,"stimulus":"<div class = centerbox><div class = fixation>+</div></div>","response":null,"trial_id":"test_ITI","ITIParams":null,"block_num":0,"exp_stage":"test","choices":["b","y","g","r","e"],"trial_type":"html-keyboard-response","trial_index":115,"time_elapsed":3221551,"internal_node_id":"0.0-6.0-107.0","trial_duration":1009.1523259055748,"stimulus_duration":1009.1523259055748},{"rt":462,"stimulus":"\n    <div class=\"bigbox\">\n        <div class=\"centerbox\">\n          <div class=\"gng_number\">\n            <div class=\"cue-text\">\n              <div id=\"stim1\"></div>\n            </div>\n          </div>\n        </div>\n      </div>","response":"y","correct_response":"y","condition":"go","trial_id":"test_trial","trial_duration":1500,"stimulus_duration":1000,"exp_stage":"test","block_num":0,"choices":["b","y","g","r","e"],"trial_type":"html-keyboard-response","trial_index":116,"time_elapsed":3223054,"internal_node_id":"0.0-6.0-108.0","correct_trial":1,"shape":"filled square"},{"rt":null,"stimulus":"<div class = centerbox><div class = fixation>+</div></div>","response":null,"trial_id":"test_ITI","ITIParams":null,"block_num":0,"exp_stage":"test","choices":["b","y","g","r","e"],"trial_type":"html-keyboard-response","trial_index":117,"time_elapsed":3223682,"internal_node_id":"0.0-6.0-109.0","trial_duration":622.5555903841098,"stimulus_duration":622.5555903841098},{"rt":758,"stimulus":"\n    <div class=\"bigbox\">\n        <div class=\"centerbox\">\n          <div class=\"gng_number\">\n            <div class=\"cue-text\">\n              <div id=\"stim1\"></div>\n            </div>\n          </div>\n        </div>\n      </div>","response":"y","correct_response":"y","condition":"go","trial_id":"test_trial","trial_duration":1500,"stimulus_duration":1000,"exp_stage":"test","block_num":0,"choices":["b","y","g","r","e"],"trial_type":"html-keyboard-response","trial_index":118,"time_elapsed":3225185,"internal_node_id":"0.0-6.0-110.0","correct_trial":1,"shape":"filled square"},{"rt":null,"stimulus":"<div class = centerbox><div class = fixation>+</div></div>","response":null,"trial_id":"test_ITI","ITIParams":null,"block_num":0,"exp_stage":"test","choices":["b","y","g","r","e"],"trial_type":"html-keyboard-response","trial_index":119,"time_elapsed":3226139,"internal_node_id":"0.0-6.0-111.0","trial_duration":949.7473794235418,"stimulus_duration":949.7473794235418},{"rt":459,"stimulus":"\n    <div class=\"bigbox\">\n        <div class=\"centerbox\">\n          <div class=\"gng_number\">\n            <div class=\"cue-text\">\n              <div id=\"stim1\"></div>\n            </div>\n          </div>\n        </div>\n      </div>","response":"y","correct_response":"y","condition":"go","trial_id":"test_trial","trial_duration":1500,"stimulus_duration":1000,"exp_stage":"test","block_num":0,"choices":["b","y","g","r","e"],"trial_type":"html-keyboard-response","trial_index":120,"time_elapsed":3227644,"internal_node_id":"0.0-6.0-112.0","correct_trial":1,"shape":"filled square"},{"rt":null,"stimulus":"<div class = centerbox><div class = fixation>+</div></div>","response":null,"trial_id":"test_ITI","ITIParams":null,"block_num":0,"exp_stage":"test","choices":["b","y","g","r","e"],"trial_type":"html-keyboard-response","trial_index":121,"time_elapsed":3229713,"internal_node_id":"0.0-6.0-113.0","trial_duration":2065.311941826735,"stimulus_duration":2065.311941826735},{"rt":541,"stimulus":"\n    <div class=\"bigbox\">\n        <div class=\"centerbox\">\n          <div class=\"gng_number\">\n            <div class=\"cue-text\">\n              <div id=\"stim1\"></div>\n            </div>\n          </div>\n        </div>\n      </div>","response":"y","correct_response":"y","condition":"go","trial_id":"test_trial","trial_duration":1500,"stimulus_duration":1000,"exp_stage":"test","block_num":0,"choices":["b","y","g","r","e"],"trial_type":"html-keyboard-response","trial_index":122,"time_elapsed":3231219,"internal_node_id":"0.0-6.0-114.0","correct_trial":1,"shape":"filled square"},{"rt":null,"stimulus":"<div class = centerbox><div class = fixation>+</div></div>","response":null,"trial_id":"test_ITI","ITIParams":null,"block_num":0,"exp_stage":"test","choices":["b","y","g","r","e"],"trial_type":"html-keyboard-response","trial_index":123,"time_elapsed":3231815,"internal_node_id":"0.0-6.0-115.0","trial_duration":591.649363898739,"stimulus_duration":591.649363898739},{"rt":null,"stimulus":"\n    <div class=\"bigbox\">\n        <div class=\"centerbox\">\n          <div class=\"gng_number\">\n            <div class=\"cue-text\">\n              <div id=\"stim2\"></div>\n            </div>\n          </div>\n        </div>\n      </div>","response":null,"correct_response":null,"condition":"nogo","trial_id":"test_trial","trial_duration":1500,"stimulus_duration":1000,"exp_stage":"test","block_num":0,"choices":["b","y","g","r","e"],"trial_type":"html-keyboard-response","trial_index":124,"time_elapsed":3233321,"internal_node_id":"0.0-6.0-116.0","correct_trial":1,"shape":"outlined square"},{"rt":null,"stimulus":"<div class = centerbox><div class = fixation>+</div></div>","response":null,"trial_id":"test_ITI","ITIParams":null,"block_num":0,"exp_stage":"test","choices":["b","y","g","r","e"],"trial_type":"html-keyboard-response","trial_index":125,"time_elapsed":3234588,"internal_node_id":"0.0-6.0-117.0","trial_duration":1262.167354086131,"stimulus_duration":1262.167354086131},{"rt":600,"stimulus":"\n    <div class=\"bigbox\">\n        <div class=\"centerbox\">\n          <div class=\"gng_number\">\n            <div class=\"cue-text\">\n              <div id=\"stim1\"></div>\n            </div>\n          </div>\n        </div>\n      </div>","response":"y","correct_response":"y","condition":"go","trial_id":"test_trial","trial_duration":1500,"stimulus_duration":1000,"exp_stage":"test","block_num":0,"choices":["b","y","g","r","e"],"trial_type":"html-keyboard-response","trial_index":126,"time_elapsed":3236089,"internal_node_id":"0.0-6.0-118.0","correct_trial":1,"shape":"filled square"},{"rt":null,"stimulus":"<div class = centerbox><div class = fixation>+</div></div>","response":null,"trial_id":"test_ITI","ITIParams":null,"block_num":0,"exp_stage":"test","choices":["b","y","g","r","e"],"trial_type":"html-keyboard-response","trial_index":127,"time_elapsed":3236670,"internal_node_id":"0.0-6.0-119.0","trial_duration":575.5750766238918,"stimulus_duration":575.5750766238918},{"rt":523,"stimulus":"\n    <div class=\"bigbox\">\n        <div class=\"centerbox\">\n          <div class=\"gng_number\">\n            <div class=\"cue-text\">\n              <div id=\"stim1\"></div>\n            </div>\n          </div>\n        </div>\n      </div>","response":"y","correct_response":"y","condition":"go","trial_id":"test_trial","trial_duration":1500,"stimulus_duration":1000,"exp_stage":"test","block_num":0,"choices":["b","y","g","r","e"],"trial_type":"html-keyboard-response","trial_index":128,"time_elapsed":3238175,"internal_node_id":"0.0-6.0-120.0","correct_trial":1,"shape":"filled square"},{"rt":null,"stimulus":"<div class = centerbox><div class = fixation>+</div></div>","response":null,"trial_id":"test_ITI","ITIParams":null,"block_num":0,"exp_stage":"test","choices":["b","y","g","r","e"],"trial_type":"html-keyboard-response","trial_index":129,"time_elapsed":3239678,"internal_node_id":"0.0-6.0-121.0","trial_duration":1498.747458940386,"stimulus_duration":1498.747458940386},{"rt":432,"stimulus":"\n    <div class=\"bigbox\">\n        <div class=\"centerbox\">\n          <div class=\"gng_number\">\n            <div class=\"cue-text\">\n              <div id=\"stim1\"></div>\n            </div>\n          </div>\n        </div>\n      </div>","response":"y","correct_response":"y","condition":"go","trial_id":"test_trial","trial_duration":1500,"stimulus_duration":1000,"exp_stage":"test","block_num":0,"choices":["b","y","g","r","e"],"trial_type":"html-keyboard-response","trial_index":130,"time_elapsed":3241179,"internal_node_id":"0.0-6.0-122.0","correct_trial":1,"shape":"filled square"},{"rt":null,"stimulus":"<div class = centerbox><div class = fixation>+</div></div>","response":null,"trial_id":"test_ITI","ITIParams":null,"block_num":0,"exp_stage":"test","choices":["b","y","g","r","e"],"trial_type":"html-keyboard-response","trial_index":131,"time_elapsed":3241719,"internal_node_id":"0.0-6.0-123.0","trial_duration":534.4797235210876,"stimulus_duration":534.4797235210876},{"rt":432,"stimulus":"\n    <div class=\"bigbox\">\n        <div class=\"centerbox\">\n          <div class=\"gng_number\">\n            <div class=\"cue-text\">\n              <div id=\"stim1\"></div>\n            </div>\n          </div>\n        </div>\n      </div>","response":"y","correct_response":"y","condition":"go","trial_id":"test_trial","trial_duration":1500,"stimulus_duration":1000,"exp_stage":"test","block_num":0,"choices":["b","y","g","r","e"],"trial_type":"html-keyboard-response","trial_index":132,"time_elapsed":3243225,"internal_node_id":"0.0-6.0-124.0","correct_trial":1,"shape":"filled square"},{"rt":null,"stimulus":"<div class = centerbox><div class = fixation>+</div></div>","response":null,"trial_id":"test_ITI","ITIParams":null,"block_num":0,"exp_stage":"test","choices":["b","y","g","r","e"],"trial_type":"html-keyboard-response","trial_index":133,"time_elapsed":3243801,"internal_node_id":"0.0-6.0-125.0","trial_duration":570.1470138319849,"stimulus_duration":570.1470138319849},{"rt":517,"stimulus":"\n    <div class=\"bigbox\">\n        <div class=\"centerbox\">\n          <div class=\"gng_number\">\n            <div class=\"cue-text\">\n              <div id=\"stim1\"></div>\n            </div>\n          </div>\n        </div>\n      </div>","response":"y","correct_response":"y","condition":"go","trial_id":"test_trial","trial_duration":1500,"stimulus_duration":1000,"exp_stage":"test","block_num":0,"choices":["b","y","g","r","e"],"trial_type":"html-keyboard-response","trial_index":134,"time_elapsed":3245306,"internal_node_id":"0.0-6.0-126.0","correct_trial":1,"shape":"filled square"},{"rt":null,"stimulus":"<div class = centerbox><div class = fixation>+</div></div>","response":null,"trial_id":"test_ITI","ITIParams":null,"block_num":0,"exp_stage":"test","choices":["b","y","g","r","e"],"trial_type":"html-keyboard-response","trial_index":135,"time_elapsed":3246004,"internal_node_id":"0.0-6.0-127.0","trial_duration":692.1144649737982,"stimulus_duration":692.1144649737982},{"rt":363,"stimulus":"\n    <div class=\"bigbox\">\n        <div class=\"centerbox\">\n          <div class=\"gng_number\">\n            <div class=\"cue-text\">\n              <div id=\"stim1\"></div>\n            </div>\n          </div>\n        </div>\n      </div>","response":"y","correct_response":"y","condition":"go","trial_id":"test_trial","trial_duration":1500,"stimulus_duration":1000,"exp_stage":"test","block_num":0,"choices":["b","y","g","r","e"],"trial_type":"html-keyboard-response","trial_index":136,"time_elapsed":3247509,"internal_node_id":"0.0-6.0-128.0","correct_trial":1,"shape":"filled square"},{"rt":null,"stimulus":"<div class = centerbox><div class = fixation>+</div></div>","response":null,"trial_id":"test_long_fixation","exp_stage":"test","trial_duration":6000,"stimulus_duration":6000,"block_num":1,"choices":["b","y","g","r","e"],"trial_type":"html-keyboard-response","trial_index":137,"time_elapsed":3253515,"internal_node_id":"0.0-6.1-0.1-0.1"},{"rt":null,"stimulus":"<div class=\"bigbox\"><div class=\"picture_box\"><p class=\"block-text\"><div class = centerbox><p class=block-text>Completed 1 of 3 blocks.</p></div></p></div></div>","response":null,"trial_id":"test_feedback","exp_stage":"test","trial_duration":4000,"block_num":1,"trial_type":"html-keyboard-response","trial_index":138,"time_elapsed":3257536,"internal_node_id":"0.0-6.1-1.1-0.1","block_level_feedback":{}},{"rt":null,"stimulus":"<div class = centerbox><div class = fixation>+</div></div>","response":null,"trial_id":"test_long_fixation","exp_stage":"test","trial_duration":6000,"stimulus_duration":6000,"block_num":1,"choices":["b","y","g","r","e"],"trial_type":"html-keyboard-response","trial_index":139,"time_elapsed":3263565,"internal_node_id":"0.0-6.1-2.1-0.1"},{"rt":null,"stimulus":"<div class = centerbox><div class = fixation>+</div></div>","response":null,"trial_id":"test_ITI","ITIParams":null,"block_num":1,"exp_stage":"test","choices":["b","y","g","r","e"],"trial_type":"html-keyboard-response","trial_index":140,"time_elapsed":3266259,"internal_node_id":"0.0-6.1-3.1","trial_duration":2688.630367419819,"stimulus_duration":2688.630367419819},{"rt":661,"stimulus":"\n    <div class=\"bigbox\">\n        <div class=\"centerbox\">\n          <div class=\"gng_number\">\n            <div class=\"cue-text\">\n              <div id=\"stim1\"></div>\n            </div>\n          </div>\n        </div>\n      </div>","response":"y","correct_response":"y","condition":"go","trial_id":"test_trial","trial_duration":1500,"stimulus_duration":1000,"exp_stage":"test","block_num":1,"choices":["b","y","g","r","e"],"trial_type":"html-keyboard-response","trial_index":141,"time_elapsed":3267764,"internal_node_id":"0.0-6.1-4.1","correct_trial":1,"shape":"filled square"},{"rt":null,"stimulus":"<div class = centerbox><div class = fixation>+</div></div>","response":null,"trial_id":"test_ITI","ITIParams":null,"block_num":1,"exp_stage":"test","choices":["b","y","g","r","e"],"trial_type":"html-keyboard-response","trial_index":142,"time_elapsed":3268402,"internal_node_id":"0.0-6.1-5.1","trial_duration":633.5469385811621,"stimulus_duration":633.5469385811621},{"rt":364,"stimulus":"\n    <div class=\"bigbox\">\n        <div class=\"centerbox\">\n          <div class=\"gng_number\">\n            <div class=\"cue-text\">\n              <div id=\"stim1\"></div>\n            </div>\n          </div>\n        </div>\n      </div>","response":"y","correct_response":"y","condition":"go","trial_id":"test_trial","trial_duration":1500,"stimulus_duration":1000,"exp_stage":"test","block_num":1,"choices":["b","y","g","r","e"],"trial_type":"html-keyboard-response","trial_index":143,"time_elapsed":3269908,"internal_node_id":"0.0-6.1-6.1","correct_trial":1,"shape":"filled square"},{"rt":null,"stimulus":"<div class = centerbox><div class = fixation>+</div></div>","response":null,"trial_id":"test_ITI","ITIParams":null,"block_num":1,"exp_stage":"test","choices":["b","y","g","r","e"],"trial_type":"html-keyboard-response","trial_index":144,"time_elapsed":3270992,"internal_node_id":"0.0-6.1-7.1","trial_duration":1078.0623866361907,"stimulus_duration":1078.0623866361907},{"rt":377,"stimulus":"\n    <div class=\"bigbox\">\n        <div class=\"centerbox\">\n          <div class=\"gng_number\">\n            <div class=\"cue-text\">\n              <div id=\"stim1\"></div>\n            </div>\n          </div>\n        </div>\n      </div>","response":"y","correct_response":"y","condition":"go","trial_id":"test_trial","trial_duration":1500,"stimulus_duration":1000,"exp_stage":"test","block_num":1,"choices":["b","y","g","r","e"],"trial_type":"html-keyboard-response","trial_index":145,"time_elapsed":3272498,"internal_node_id":"0.0-6.1-8.1","correct_trial":1,"shape":"filled square"},{"rt":null,"stimulus":"<div class = centerbox><div class = fixation>+</div></div>","response":null,"trial_id":"test_ITI","ITIParams":null,"block_num":1,"exp_stage":"test","choices":["b","y","g","r","e"],"trial_type":"html-keyboard-response","trial_index":146,"time_elapsed":3273217,"internal_node_id":"0.0-6.1-9.1","trial_duration":713.6356271201407,"stimulus_duration":713.6356271201407},{"rt":374,"stimulus":"\n    <div class=\"bigbox\">\n        <div class=\"centerbox\">\n          <div class=\"gng_number\">\n            <div class=\"cue-text\">\n              <div id=\"stim1\"></div>\n            </div>\n          </div>\n        </div>\n      </div>","response":"y","correct_response":"y","condition":"go","trial_id":"test_trial","trial_duration":1500,"stimulus_duration":1000,"exp_stage":"test","block_num":1,"choices":["b","y","g","r","e"],"trial_type":"html-keyboard-response","trial_index":147,"time_elapsed":3274721,"internal_node_id":"0.0-6.1-10.1","correct_trial":1,"shape":"filled square"},{"rt":null,"stimulus":"<div class = centerbox><div class = fixation>+</div></div>","response":null,"trial_id":"test_ITI","ITIParams":null,"block_num":1,"exp_stage":"test","choices":["b","y","g","r","e"],"trial_type":"html-keyboard-response","trial_index":148,"time_elapsed":3275767,"internal_node_id":"0.0-6.1-11.1","trial_duration":936.3017989101365,"stimulus_duration":936.3017989101365},{"rt":325,"stimulus":"\n    <div class=\"bigbox\">\n        <div class=\"centerbox\">\n          <div class=\"gng_number\">\n            <div class=\"cue-text\">\n              <div id=\"stim1\"></div>\n            </div>\n          </div>\n        </div>\n      </div>","response":"y","correct_response":"y","condition":"go","trial_id":"test_trial","trial_duration":1500,"stimulus_duration":1000,"exp_stage":"test","block_num":1,"choices":["b","y","g","r","e"],"trial_type":"html-keyboard-response","trial_index":149,"time_elapsed":3277272,"internal_node_id":"0.0-6.1-12.1","correct_trial":1,"shape":"filled square"},{"rt":null,"stimulus":"<div class = centerbox><div class = fixation>+</div></div>","response":null,"trial_id":"test_ITI","ITIParams":null,"block_num":1,"exp_stage":"test","choices":["b","y","g","r","e"],"trial_type":"html-keyboard-response","trial_index":150,"time_elapsed":3277961,"internal_node_id":"0.0-6.1-13.1","trial_duration":684.4813010812345,"stimulus_duration":684.4813010812345},{"rt":588,"stimulus":"\n    <div class=\"bigbox\">\n        <div class=\"centerbox\">\n          <div class=\"gng_number\">\n            <div class=\"cue-text\">\n              <div id=\"stim1\"></div>\n            </div>\n          </div>\n        </div>\n      </div>","response":"y","correct_response":"y","condition":"go","trial_id":"test_trial","trial_duration":1500,"stimulus_duration":1000,"exp_stage":"test","block_num":1,"choices":["b","y","g","r","e"],"trial_type":"html-keyboard-response","trial_index":151,"time_elapsed":3279467,"internal_node_id":"0.0-6.1-14.1","correct_trial":1,"shape":"filled square"},{"rt":null,"stimulus":"<div class = centerbox><div class = fixation>+</div></div>","response":null,"trial_id":"test_ITI","ITIParams":null,"block_num":1,"exp_stage":"test","choices":["b","y","g","r","e"],"trial_type":"html-keyboard-response","trial_index":152,"time_elapsed":3280238,"internal_node_id":"0.0-6.1-15.1","trial_duration":769.2404750526123,"stimulus_duration":769.2404750526123},{"rt":411,"stimulus":"\n    <div class=\"bigbox\">\n        <div class=\"centerbox\">\n          <div class=\"gng_number\">\n            <div class=\"cue-text\">\n              <div id=\"stim1\"></div>\n            </div>\n          </div>\n        </div>\n      </div>","response":"y","correct_response":"y","condition":"go","trial_id":"test_trial","trial_duration":1500,"stimulus_duration":1000,"exp_stage":"test","block_num":1,"choices":["b","y","g","r","e"],"trial_type":"html-keyboard-response","trial_index":153,"time_elapsed":3281745,"internal_node_id":"0.0-6.1-16.1","correct_trial":1,"shape":"filled square"},{"rt":null,"stimulus":"<div class = centerbox><div class = fixation>+</div></div>","response":null,"trial_id":"test_ITI","ITIParams":null,"block_num":1,"exp_stage":"test","choices":["b","y","g","r","e"],"trial_type":"html-keyboard-response","trial_index":154,"time_elapsed":3282415,"internal_node_id":"0.0-6.1-17.1","trial_duration":666.2949063719168,"stimulus_duration":666.2949063719168},{"rt":406,"stimulus":"\n    <div class=\"bigbox\">\n        <div class=\"centerbox\">\n          <div class=\"gng_number\">\n            <div class=\"cue-text\">\n              <div id=\"stim1\"></div>\n            </div>\n          </div>\n        </div>\n      </div>","response":"y","correct_response":"y","condition":"go","trial_id":"test_trial","trial_duration":1500,"stimulus_duration":1000,"exp_stage":"test","block_num":1,"choices":["b","y","g","r","e"],"trial_type":"html-keyboard-response","trial_index":155,"time_elapsed":3283916,"internal_node_id":"0.0-6.1-18.1","correct_trial":1,"shape":"filled square"},{"rt":null,"stimulus":"<div class = centerbox><div class = fixation>+</div></div>","response":null,"trial_id":"test_ITI","ITIParams":null,"block_num":1,"exp_stage":"test","choices":["b","y","g","r","e"],"trial_type":"html-keyboard-response","trial_index":156,"time_elapsed":3284715,"internal_node_id":"0.0-6.1-19.1","trial_duration":793.2313907442392,"stimulus_duration":793.2313907442392},{"rt":382,"stimulus":"\n    <div class=\"bigbox\">\n        <div class=\"centerbox\">\n          <div class=\"gng_number\">\n            <div class=\"cue-text\">\n              <div id=\"stim1\"></div>\n            </div>\n          </div>\n        </div>\n      </div>","response":"y","correct_response":"y","condition":"go","trial_id":"test_trial","trial_duration":1500,"stimulus_duration":1000,"exp_stage":"test","block_num":1,"choices":["b","y","g","r","e"],"trial_type":"html-keyboard-response","trial_index":157,"time_elapsed":3286221,"internal_node_id":"0.0-6.1-20.1","correct_trial":1,"shape":"filled square"},{"rt":null,"stimulus":"<div class = centerbox><div class = fixation>+</div></div>","response":null,"trial_id":"test_ITI","ITIParams":null,"block_num":1,"exp_stage":"test","choices":["b","y","g","r","e"],"trial_type":"html-keyboard-response","trial_index":158,"time_elapsed":3286758,"internal_node_id":"0.0-6.1-21.1","trial_duration":531.6480225406224,"stimulus_duration":531.6480225406224},{"rt":null,"stimulus":"\n    <div class=\"bigbox\">\n        <div class=\"centerbox\">\n          <div class=\"gng_number\">\n            <div class=\"cue-text\">\n              <div id=\"stim2\"></div>\n            </div>\n          </div>\n        </div>\n      </div>","response":null,"correct_response":null,"condition":"nogo","trial_id":"test_trial","trial_duration":1500,"stimulus_duration":1000,"exp_stage":"test","block_num":1,"choices":["b","y","g","r","e"],"trial_type":"html-keyboard-response","trial_index":159,"time_elapsed":3288263,"internal_node_id":"0.0-6.1-22.1","correct_trial":1,"shape":"outlined square"},{"rt":null,"stimulus":"<div class = centerbox><div class = fixation>+</div></div>","response":null,"trial_id":"test_ITI","ITIParams":null,"block_num":1,"exp_stage":"test","choices":["b","y","g","r","e"],"trial_type":"html-keyboard-response","trial_index":160,"time_elapsed":3288843,"internal_node_id":"0.0-6.1-23.1","trial_duration":557.4074326371203,"stimulus_duration":557.4074326371203},{"rt":497,"stimulus":"\n    <div class=\"bigbox\">\n        <div class=\"centerbox\">\n          <div class=\"gng_number\">\n            <div class=\"cue-text\">\n              <div id=\"stim1\"></div>\n            </div>\n          </div>\n        </div>\n      </div>","response":"y","correct_response":"y","condition":"go","trial_id":"test_trial","trial_duration":1500,"stimulus_duration":1000,"exp_stage":"test","block_num":1,"choices":["b","y","g","r","e"],"trial_type":"html-keyboard-response","trial_index":161,"time_elapsed":3290348,"internal_node_id":"0.0-6.1-24.1","correct_trial":1,"shape":"filled square"},{"rt":null,"stimulus":"<div class = centerbox><div class = fixation>+</div></div>","response":null,"trial_id":"test_ITI","ITIParams":null,"block_num":1,"exp_stage":"test","choices":["b","y","g","r","e"],"trial_type":"html-keyboard-response","trial_index":162,"time_elapsed":3291254,"internal_node_id":"0.0-6.1-25.1","trial_duration":900.7980260064414,"stimulus_duration":900.7980260064414},{"rt":466,"stimulus":"\n    <div class=\"bigbox\">\n        <div class=\"centerbox\">\n          <div class=\"gng_number\">\n            <div class=\"cue-text\">\n              <div id=\"stim1\"></div>\n            </div>\n          </div>\n        </div>\n      </div>","response":"y","correct_response":"y","condition":"go","trial_id":"test_trial","trial_duration":1500,"stimulus_duration":1000,"exp_stage":"test","block_num":1,"choices":["b","y","g","r","e"],"trial_type":"html-keyboard-response","trial_index":163,"time_elapsed":3292755,"internal_node_id":"0.0-6.1-26.1","correct_trial":1,"shape":"filled square"},{"rt":null,"stimulus":"<div class = centerbox><div class = fixation>+</div></div>","response":null,"trial_id":"test_ITI","ITIParams":null,"block_num":1,"exp_stage":"test","choices":["b","y","g","r","e"],"trial_type":"html-keyboard-response","trial_index":164,"time_elapsed":3293703,"internal_node_id":"0.0-6.1-27.1","trial_duration":943.5973842146836,"stimulus_duration":943.5973842146836},{"rt":null,"stimulus":"\n    <div class=\"bigbox\">\n        <div class=\"centerbox\">\n          <div class=\"gng_number\">\n            <div class=\"cue-text\">\n              <div id=\"stim2\"></div>\n            </div>\n          </div>\n        </div>\n      </div>","response":null,"correct_response":null,"condition":"nogo","trial_id":"test_trial","trial_duration":1500,"stimulus_duration":1000,"exp_stage":"test","block_num":1,"choices":["b","y","g","r","e"],"trial_type":"html-keyboard-response","trial_index":165,"time_elapsed":3295210,"internal_node_id":"0.0-6.1-28.1","correct_trial":1,"shape":"outlined square"},{"rt":null,"stimulus":"<div class = centerbox><div class = fixation>+</div></div>","response":null,"trial_id":"test_ITI","ITIParams":null,"block_num":1,"exp_stage":"test","choices":["b","y","g","r","e"],"trial_type":"html-keyboard-response","trial_index":166,"time_elapsed":3295753,"internal_node_id":"0.0-6.1-29.1","trial_duration":538.971518363212,"stimulus_duration":538.971518363212},{"rt":436,"stimulus":"\n    <div class=\"bigbox\">\n        <div class=\"centerbox\">\n          <div class=\"gng_number\">\n            <div class=\"cue-text\">\n              <div id=\"stim1\"></div>\n            </div>\n          </div>\n        </div>\n      </div>","response":"y","correct_response":"y","condition":"go","trial_id":"test_trial","trial_duration":1500,"stimulus_duration":1000,"exp_stage":"test","block_num":1,"choices":["b","y","g","r","e"],"trial_type":"html-keyboard-response","trial_index":167,"time_elapsed":3297259,"internal_node_id":"0.0-6.1-30.1","correct_trial":1,"shape":"filled square"},{"rt":null,"stimulus":"<div class = centerbox><div class = fixation>+</div></div>","response":null,"trial_id":"test_ITI","ITIParams":null,"block_num":1,"exp_stage":"test","choices":["b","y","g","r","e"],"trial_type":"html-keyboard-response","trial_index":168,"time_elapsed":3297993,"internal_node_id":"0.0-6.1-31.1","trial_duration":728.4150118324817,"stimulus_duration":728.4150118324817},{"rt":446,"stimulus":"\n    <div class=\"bigbox\">\n        <div class=\"centerbox\">\n          <div class=\"gng_number\">\n            <div class=\"cue-text\">\n              <div id=\"stim1\"></div>\n            </div>\n          </div>\n        </div>\n      </div>","response":"y","correct_response":"y","condition":"go","trial_id":"test_trial","trial_duration":1500,"stimulus_duration":1000,"exp_stage":"test","block_num":1,"choices":["b","y","g","r","e"],"trial_type":"html-keyboard-response","trial_index":169,"time_elapsed":3299498,"internal_node_id":"0.0-6.1-32.1","correct_trial":1,"shape":"filled square"},{"rt":null,"stimulus":"<div class = centerbox><div class = fixation>+</div></div>","response":null,"trial_id":"test_ITI","ITIParams":null,"block_num":1,"exp_stage":"test","choices":["b","y","g","r","e"],"trial_type":"html-keyboard-response","trial_index":170,"time_elapsed":3300767,"internal_node_id":"0.0-6.1-33.1","trial_duration":1265.0064199759186,"stimulus_duration":1265.0064199759186},{"rt":383,"stimulus":"\n    <div class=\"bigbox\">\n        <div class=\"centerbox\">\n          <div class=\"gng_number\">\n            <div class=\"cue-text\">\n              <div id=\"stim1\"></div>\n            </div>\n          </div>\n        </div>\n      </div>","response":"y","correct_response":"y","condition":"go","trial_id":"test_trial","trial_duration":1500,"stimulus_duration":1000,"exp_stage":"test","block_num":1,"choices":["b","y","g","r","e"],"trial_type":"html-keyboard-response","trial_index":171,"time_elapsed":3302273,"internal_node_id":"0.0-6.1-34.1","correct_trial":1,"shape":"filled square"},{"rt":null,"stimulus":"<div class = centerbox><div class = fixation>+</div></div>","response":null,"trial_id":"test_ITI","ITIParams":null,"block_num":1,"exp_stage":"test","choices":["b","y","g","r","e"],"trial_type":"html-keyboard-response","trial_index":172,"time_elapsed":3302811,"internal_node_id":"0.0-6.1-35.1","trial_duration":534.1043473221418,"stimulus_duration":534.1043473221418},{"rt":574,"stimulus":"\n    <div class=\"bigbox\">\n        <div class=\"centerbox\">\n          <div class=\"gng_number\">\n            <div class=\"cue-text\">\n              <div id=\"stim1\"></div>\n            </div>\n          </div>\n        </div>\n      </div>","response":"y","correct_response":"y","condition":"go","trial_id":"test_trial","trial_duration":1500,"stimulus_duration":1000,"exp_stage":"test","block_num":1,"choices":["b","y","g","r","e"],"trial_type":"html-keyboard-response","trial_index":173,"time_elapsed":3304313,"internal_node_id":"0.0-6.1-36.1","correct_trial":1,"shape":"filled square"},{"rt":null,"stimulus":"<div class = centerbox><div class = fixation>+</div></div>","response":null,"trial_id":"test_ITI","ITIParams":null,"block_num":1,"exp_stage":"test","choices":["b","y","g","r","e"],"trial_type":"html-keyboard-response","trial_index":174,"time_elapsed":3304987,"internal_node_id":"0.0-6.1-37.1","trial_duration":671.3854448771315,"stimulus_duration":671.3854448771315},{"rt":null,"stimulus":"\n    <div class=\"bigbox\">\n        <div class=\"centerbox\">\n          <div class=\"gng_number\">\n            <div class=\"cue-text\">\n              <div id=\"stim2\"></div>\n            </div>\n          </div>\n        </div>\n      </div>","response":null,"correct_response":null,"condition":"nogo","trial_id":"test_trial","trial_duration":1500,"stimulus_duration":1000,"exp_stage":"test","block_num":1,"choices":["b","y","g","r","e"],"trial_type":"html-keyboard-response","trial_index":175,"time_elapsed":3306492,"internal_node_id":"0.0-6.1-38.1","correct_trial":1,"shape":"outlined square"},{"rt":null,"stimulus":"<div class = centerbox><div class = fixation>+</div></div>","response":null,"trial_id":"test_ITI","ITIParams":null,"block_num":1,"exp_stage":"test","choices":["b","y","g","r","e"],"trial_type":"html-keyboard-response","trial_index":176,"time_elapsed":3307064,"internal_node_id":"0.0-6.1-39.1","trial_duration":569.1338746451038,"stimulus_duration":569.1338746451038},{"rt":503,"stimulus":"\n    <div class=\"bigbox\">\n        <div class=\"centerbox\">\n          <div class=\"gng_number\">\n            <div class=\"cue-text\">\n              <div id=\"stim1\"></div>\n            </div>\n          </div>\n        </div>\n      </div>","response":"y","correct_response":"y","condition":"go","trial_id":"test_trial","trial_duration":1500,"stimulus_duration":1000,"exp_stage":"test","block_num":1,"choices":["b","y","g","r","e"],"trial_type":"html-keyboard-response","trial_index":177,"time_elapsed":3308567,"internal_node_id":"0.0-6.1-40.1","correct_trial":1,"shape":"filled square"},{"rt":null,"stimulus":"<div class = centerbox><div class = fixation>+</div></div>","response":null,"trial_id":"test_ITI","ITIParams":null,"block_num":1,"exp_stage":"test","choices":["b","y","g","r","e"],"trial_type":"html-keyboard-response","trial_index":178,"time_elapsed":3309679,"internal_node_id":"0.0-6.1-41.1","trial_duration":1106.6546754086914,"stimulus_duration":1106.6546754086914},{"rt":409,"stimulus":"\n    <div class=\"bigbox\">\n        <div class=\"centerbox\">\n          <div class=\"gng_number\">\n            <div class=\"cue-text\">\n              <div id=\"stim1\"></div>\n            </div>\n          </div>\n        </div>\n      </div>","response":"y","correct_response":"y","condition":"go","trial_id":"test_trial","trial_duration":1500,"stimulus_duration":1000,"exp_stage":"test","block_num":1,"choices":["b","y","g","r","e"],"trial_type":"html-keyboard-response","trial_index":179,"time_elapsed":3311181,"internal_node_id":"0.0-6.1-42.1","correct_trial":1,"shape":"filled square"},{"rt":null,"stimulus":"<div class = centerbox><div class = fixation>+</div></div>","response":null,"trial_id":"test_ITI","ITIParams":null,"block_num":1,"exp_stage":"test","choices":["b","y","g","r","e"],"trial_type":"html-keyboard-response","trial_index":180,"time_elapsed":3311938,"internal_node_id":"0.0-6.1-43.1","trial_duration":754.2139831854797,"stimulus_duration":754.2139831854797},{"rt":387,"stimulus":"\n    <div class=\"bigbox\">\n        <div class=\"centerbox\">\n          <div class=\"gng_number\">\n            <div class=\"cue-text\">\n              <div id=\"stim1\"></div>\n            </div>\n          </div>\n        </div>\n      </div>","response":"y","correct_response":"y","condition":"go","trial_id":"test_trial","trial_duration":1500,"stimulus_duration":1000,"exp_stage":"test","block_num":1,"choices":["b","y","g","r","e"],"trial_type":"html-keyboard-response","trial_index":181,"time_elapsed":3313444,"internal_node_id":"0.0-6.1-44.1","correct_trial":1,"shape":"filled square"},{"rt":null,"stimulus":"<div class = centerbox><div class = fixation>+</div></div>","response":null,"trial_id":"test_ITI","ITIParams":null,"block_num":1,"exp_stage":"test","choices":["b","y","g","r","e"],"trial_type":"html-keyboard-response","trial_index":182,"time_elapsed":3314204,"internal_node_id":"0.0-6.1-45.1","trial_duration":758.5550804307104,"stimulus_duration":758.5550804307104},{"rt":392,"stimulus":"\n    <div class=\"bigbox\">\n        <div class=\"centerbox\">\n          <div class=\"gng_number\">\n            <div class=\"cue-text\">\n              <div id=\"stim1\"></div>\n            </div>\n          </div>\n        </div>\n      </div>","response":"y","correct_response":"y","condition":"go","trial_id":"test_trial","trial_duration":1500,"stimulus_duration":1000,"exp_stage":"test","block_num":1,"choices":["b","y","g","r","e"],"trial_type":"html-keyboard-response","trial_index":183,"time_elapsed":3315707,"internal_node_id":"0.0-6.1-46.1","correct_trial":1,"shape":"filled square"},{"rt":null,"stimulus":"<div class = centerbox><div class = fixation>+</div></div>","response":null,"trial_id":"test_ITI","ITIParams":null,"block_num":1,"exp_stage":"test","choices":["b","y","g","r","e"],"trial_type":"html-keyboard-response","trial_index":184,"time_elapsed":3316465,"internal_node_id":"0.0-6.1-47.1","trial_duration":752.4382092147732,"stimulus_duration":752.4382092147732},{"rt":407,"stimulus":"\n    <div class=\"bigbox\">\n        <div class=\"centerbox\">\n          <div class=\"gng_number\">\n            <div class=\"cue-text\">\n              <div id=\"stim1\"></div>\n            </div>\n          </div>\n        </div>\n      </div>","response":"y","correct_response":"y","condition":"go","trial_id":"test_trial","trial_duration":1500,"stimulus_duration":1000,"exp_stage":"test","block_num":1,"choices":["b","y","g","r","e"],"trial_type":"html-keyboard-response","trial_index":185,"time_elapsed":3317972,"internal_node_id":"0.0-6.1-48.1","correct_trial":1,"shape":"filled square"},{"rt":null,"stimulus":"<div class = centerbox><div class = fixation>+</div></div>","response":null,"trial_id":"test_ITI","ITIParams":null,"block_num":1,"exp_stage":"test","choices":["b","y","g","r","e"],"trial_type":"html-keyboard-response","trial_index":186,"time_elapsed":3318910,"internal_node_id":"0.0-6.1-49.1","trial_duration":856.2602148464293,"stimulus_duration":856.2602148464293},{"rt":386,"stimulus":"\n    <div class=\"bigbox\">\n        <div class=\"centerbox\">\n          <div class=\"gng_number\">\n            <div class=\"cue-text\">\n              <div id=\"stim1\"></div>\n            </div>\n          </div>\n        </div>\n      </div>","response":"y","correct_response":"y","condition":"go","trial_id":"test_trial","trial_duration":1500,"stimulus_duration":1000,"exp_stage":"test","block_num":1,"choices":["b","y","g","r","e"],"trial_type":"html-keyboard-response","trial_index":187,"time_elapsed":3320412,"internal_node_id":"0.0-6.1-50.1","correct_trial":1,"shape":"filled square"},{"rt":null,"stimulus":"<div class = centerbox><div class = fixation>+</div></div>","response":null,"trial_id":"test_ITI","ITIParams":null,"block_num":1,"exp_stage":"test","choices":["b","y","g","r","e"],"trial_type":"html-keyboard-response","trial_index":188,"time_elapsed":3321463,"internal_node_id":"0.0-6.1-51.1","trial_duration":1049.1985423045378,"stimulus_duration":1049.1985423045378},{"rt":529,"stimulus":"\n    <div class=\"bigbox\">\n        <div class=\"centerbox\">\n          <div class=\"gng_number\">\n            <div class=\"cue-text\">\n              <div id=\"stim1\"></div>\n            </div>\n          </div>\n        </div>\n      </div>","response":"y","correct_response":"y","condition":"go","trial_id":"test_trial","trial_duration":1500,"stimulus_duration":1000,"exp_stage":"test","block_num":1,"choices":["b","y","g","r","e"],"trial_type":"html-keyboard-response","trial_index":189,"time_elapsed":3322969,"internal_node_id":"0.0-6.1-52.1","correct_trial":1,"shape":"filled square"},{"rt":null,"stimulus":"<div class = centerbox><div class = fixation>+</div></div>","response":null,"trial_id":"test_ITI","ITIParams":null,"block_num":1,"exp_stage":"test","choices":["b","y","g","r","e"],"trial_type":"html-keyboard-response","trial_index":190,"time_elapsed":3323644,"internal_node_id":"0.0-6.1-53.1","trial_duration":673.4370380677035,"stimulus_duration":673.4370380677035},{"rt":608,"stimulus":"\n    <div class=\"bigbox\">\n        <div class=\"centerbox\">\n          <div class=\"gng_number\">\n            <div class=\"cue-text\">\n              <div id=\"stim1\"></div>\n            </div>\n          </div>\n        </div>\n      </div>","response":"y","correct_response":"y","condition":"go","trial_id":"test_trial","trial_duration":1500,"stimulus_duration":1000,"exp_stage":"test","block_num":1,"choices":["b","y","g","r","e"],"trial_type":"html-keyboard-response","trial_index":191,"time_elapsed":3325150,"internal_node_id":"0.0-6.1-54.1","correct_trial":1,"shape":"filled square"},{"rt":null,"stimulus":"<div class = centerbox><div class = fixation>+</div></div>","response":null,"trial_id":"test_ITI","ITIParams":null,"block_num":1,"exp_stage":"test","choices":["b","y","g","r","e"],"trial_type":"html-keyboard-response","trial_index":192,"time_elapsed":3325769,"internal_node_id":"0.0-6.1-55.1","trial_duration":616.9379689626169,"stimulus_duration":616.9379689626169},{"rt":462,"stimulus":"\n    <div class=\"bigbox\">\n        <div class=\"centerbox\">\n          <div class=\"gng_number\">\n            <div class=\"cue-text\">\n              <div id=\"stim1\"></div>\n            </div>\n          </div>\n        </div>\n      </div>","response":"y","correct_response":"y","condition":"go","trial_id":"test_trial","trial_duration":1500,"stimulus_duration":1000,"exp_stage":"test","block_num":1,"choices":["b","y","g","r","e"],"trial_type":"html-keyboard-response","trial_index":193,"time_elapsed":3327272,"internal_node_id":"0.0-6.1-56.1","correct_trial":1,"shape":"filled square"},{"rt":null,"stimulus":"<div class = centerbox><div class = fixation>+</div></div>","response":null,"trial_id":"test_ITI","ITIParams":null,"block_num":1,"exp_stage":"test","choices":["b","y","g","r","e"],"trial_type":"html-keyboard-response","trial_index":194,"time_elapsed":3328749,"internal_node_id":"0.0-6.1-57.1","trial_duration":1473.726000118802,"stimulus_duration":1473.726000118802},{"rt":596,"stimulus":"\n    <div class=\"bigbox\">\n        <div class=\"centerbox\">\n          <div class=\"gng_number\">\n            <div class=\"cue-text\">\n              <div id=\"stim1\"></div>\n            </div>\n          </div>\n        </div>\n      </div>","response":"y","correct_response":"y","condition":"go","trial_id":"test_trial","trial_duration":1500,"stimulus_duration":1000,"exp_stage":"test","block_num":1,"choices":["b","y","g","r","e"],"trial_type":"html-keyboard-response","trial_index":195,"time_elapsed":3330255,"internal_node_id":"0.0-6.1-58.1","correct_trial":1,"shape":"filled square"},{"rt":null,"stimulus":"<div class = centerbox><div class = fixation>+</div></div>","response":null,"trial_id":"test_ITI","ITIParams":null,"block_num":1,"exp_stage":"test","choices":["b","y","g","r","e"],"trial_type":"html-keyboard-response","trial_index":196,"time_elapsed":3331072,"internal_node_id":"0.0-6.1-59.1","trial_duration":813.5112771033164,"stimulus_duration":813.5112771033164},{"rt":409,"stimulus":"\n    <div class=\"bigbox\">\n        <div class=\"centerbox\">\n          <div class=\"gng_number\">\n            <div class=\"cue-text\">\n              <div id=\"stim1\"></div>\n            </div>\n          </div>\n        </div>\n      </div>","response":"y","correct_response":"y","condition":"go","trial_id":"test_trial","trial_duration":1500,"stimulus_duration":1000,"exp_stage":"test","block_num":1,"choices":["b","y","g","r","e"],"trial_type":"html-keyboard-response","trial_index":197,"time_elapsed":3332576,"internal_node_id":"0.0-6.1-60.1","correct_trial":1,"shape":"filled square"},{"rt":null,"stimulus":"<div class = centerbox><div class = fixation>+</div></div>","response":null,"trial_id":"test_ITI","ITIParams":null,"block_num":1,"exp_stage":"test","choices":["b","y","g","r","e"],"trial_type":"html-keyboard-response","trial_index":198,"time_elapsed":3333348,"internal_node_id":"0.0-6.1-61.1","trial_duration":770.3027255548704,"stimulus_duration":770.3027255548704},{"rt":426,"stimulus":"\n    <div class=\"bigbox\">\n        <div class=\"centerbox\">\n          <div class=\"gng_number\">\n            <div class=\"cue-text\">\n              <div id=\"stim1\"></div>\n            </div>\n          </div>\n        </div>\n      </div>","response":"y","correct_response":"y","condition":"go","trial_id":"test_trial","trial_duration":1500,"stimulus_duration":1000,"exp_stage":"test","block_num":1,"choices":["b","y","g","r","e"],"trial_type":"html-keyboard-response","trial_index":199,"time_elapsed":3334853,"internal_node_id":"0.0-6.1-62.1","correct_trial":1,"shape":"filled square"},{"rt":null,"stimulus":"<div class = centerbox><div class = fixation>+</div></div>","response":null,"trial_id":"test_ITI","ITIParams":null,"block_num":1,"exp_stage":"test","choices":["b","y","g","r","e"],"trial_type":"html-keyboard-response","trial_index":200,"time_elapsed":3336056,"internal_node_id":"0.0-6.1-63.1","trial_duration":1198.490442859594,"stimulus_duration":1198.490442859594},{"rt":null,"stimulus":"\n    <div class=\"bigbox\">\n        <div class=\"centerbox\">\n          <div class=\"gng_number\">\n            <div class=\"cue-text\">\n              <div id=\"stim2\"></div>\n            </div>\n          </div>\n        </div>\n      </div>","response":null,"correct_response":null,"condition":"nogo","trial_id":"test_trial","trial_duration":1500,"stimulus_duration":1000,"exp_stage":"test","block_num":1,"choices":["b","y","g","r","e"],"trial_type":"html-keyboard-response","trial_index":201,"time_elapsed":3337562,"internal_node_id":"0.0-6.1-64.1","correct_trial":1,"shape":"outlined square"},{"rt":null,"stimulus":"<div class = centerbox><div class = fixation>+</div></div>","response":null,"trial_id":"test_ITI","ITIParams":null,"block_num":1,"exp_stage":"test","choices":["b","y","g","r","e"],"trial_type":"html-keyboard-response","trial_index":202,"time_elapsed":3338114,"int