[{"rt":4353070,"response":{"P0_Q0":null,"motor_perm":0,"design_perm":2},"accuracy":[],"trial_type":"survey","trial_index":0,"time_elapsed":4353061,"internal_node_id":"0.0-0.0","motor_perm":0,"design_perm":2},{"success":true,"trial_type":"fullscreen","trial_index":1,"time_elapsed":4354744,"internal_node_id":"0.0-1.0"},{"rt":969,"stimulus":"<div><h1>Please press the left button.</h1></div>","response":"g","trial_id":"check_left_button","trial_type":"html-keyboard-response","trial_index":2,"time_elapsed":4355716,"internal_node_id":"0.0-2.0-0.0"},{"rt":437,"stimulus":"<div><h1>Please press the right button.</h1></div>","response":"b","trial_id":"check_right_button","trial_type":"html-keyboard-response","trial_index":3,"time_elapsed":4356656,"internal_node_id":"0.0-2.0-1.0"},{"rt":576,"stimulus":"<div><h1>Please press the up button.</h1></div>","response":"r","trial_id":"check_up_button","trial_type":"html-keyboard-response","trial_index":4,"time_elapsed":4357737,"internal_node_id":"0.0-2.0-2.0"},{"rt":324,"stimulus":"<div><h1>Please press the down button.</h1></div>","response":"y","trial_id":"check_down_button","trial_type":"html-keyboard-response","trial_index":5,"time_elapsed":4358569,"internal_node_id":"0.0-2.0-3.0"},{"rt":255,"stimulus":"<div><h1>Please press the middle button.</h1></div>","response":"e","trial_id":"check_middle_button","trial_type":"html-keyboard-response","trial_index":6,"time_elapsed":4359326,"internal_node_id":"0.0-2.0-4.0"},{"rt":35626,"stimulus":"<div class=\"bigbox\"><div class=\"picture_box\"><p class=\"block-text\">\n  <div style='height: 85vh !important; display:flex; flex-direction:column; justify-content: center;' class=\"centerbox\">\n    <p class=\"block-text\">\n      During this task, you will first encounter an 8x8 grid filled with black and gray cells.\n      Press the <b>left button</b> for <b>symmetric</b> and press the <b>right button</b> for <b>asymmetric</b>.\n    </p>\n    <p class=\"block-text\">\n      When you make a response, a new 8x8 grid will appear, and you should complete as many correct symmetry judgments as you can. After each set of 8x8 grids, a 4x4 grid will have one cell colored black. You should remember the cell’s location.\n    </p>\n    <p class=\"block-text\">\n      This sequence of 8x8 grids and 4x4 grid will alternate four times. After the fourth time, a blank 4x4 grid will be presented.\n    </p>\n    <p class=\"block-text\">\n      On the blank 4x4 grid, use the <b>buttons</b> to navigate the grid and the <b>center button</b> to select the cells you think were colored black in the preceding 4 4x4 grids. Select them in the order they were shown.\n    </p>\n    <p class='block-text'>\n      It's important to respond promptly when the grid appears, as the screen will move on automatically after a limited time.\n    </p>\n  </div>\n</p></div></div>","response":" ","trial_id":"practice_feedback","exp_stage":"practice","trial_duration":4000,"block_num":0,"trial_type":"html-keyboard-response","trial_index":7,"time_elapsed":4395454,"internal_node_id":"0.0-3.0-0.0","block_level_feedback":{}},{"rt":1298,"stimulus":"<div class=\"container\"><div class=\"distractor-box active-box\"></div><div class=\"distractor-box\"></div><div class=\"distractor-box\"></div><div class=\"distractor-box active-box\"></div><div class=\"distractor-box active-box\"></div><div class=\"distractor-box active-box\"></div><div class=\"distractor-box active-box\"></div><div class=\"distractor-box active-box\"></div><div class=\"distractor-box\"></div><div class=\"distractor-box\"></div><div class=\"distractor-box active-box\"></div><div class=\"distractor-box\"></div><div class=\"distractor-box active-box\"></div><div class=\"distractor-box active-box\"></div><div class=\"distractor-box\"></div><div class=\"distractor-box\"></div><div class=\"distractor-box active-box\"></div><div class=\"distractor-box active-box\"></div><div class=\"distractor-box\"></div><div class=\"distractor-box\"></div><div class=\"distractor-box\"></div><div class=\"distractor-box active-box\"></div><div class=\"distractor-box active-box\"></div><div class=\"distractor-box active-box\"></div><div class=\"distractor-box active-box\"></div><div class=\"distractor-box active-box\"></div><div class=\"distractor-box\"></div><div class=\"distractor-box active-box\"></div><div class=\"distractor-box active-box\"></div><div class=\"distractor-box active-box\"></div><div class=\"distractor-box active-box\"></div><div class=\"distractor-box active-box\"></div><div class=\"distractor-box active-box\"></div><div class=\"distractor-box\"></div><div class=\"distractor-box active-box\"></div><div class=\"distractor-box\"></div><div class=\"distractor-box\"></div><div class=\"distractor-box active-box\"></div><div class=\"distractor-box active-box\"></div><div class=\"distractor-box active-box\"></div><div class=\"distractor-box active-box\"></div><div class=\"distractor-box active-box\"></div><div class=\"distractor-box\"></div><div class=\"distractor-box\"></div><div class=\"distractor-box active-box\"></div><div class=\"distractor-box active-box\"></div><div class=\"distractor-box active-box\"></div><div class=\"distractor-box\"></div><div class=\"distractor-box active-box\"></div><div class=\"distractor-box\"></div><div class=\"distractor-box active-box\"></div><div class=\"distractor-box\"></div><div class=\"distractor-box active-box\"></div><div class=\"distractor-box active-box\"></div><div class=\"distractor-box active-box\"></div><div class=\"distractor-box\"></div><div class=\"distractor-box\"></div><div class=\"distractor-box active-box\"></div><div class=\"distractor-box\"></div><div class=\"distractor-box\"></div><div class=\"distractor-box active-box\"></div><div class=\"distractor-box\"></div><div class=\"distractor-box\"></div><div class=\"distractor-box active-box\"></div></div>","response":"b","trial_id":"practice_inter-stimulus","exp_stage":"practice","condition":"operation","trial_duration":2500,"stimulus_duration":2500,"block_num":0,"choices":["b","y","g","r","e"],"trial_type":"html-keyboard-response","trial_index":8,"time_elapsed":4396753,"internal_node_id":"0.0-3.0-1.0-0.0","order_and_color_of_processing_boxes":["black","gray","gray","black","black","black","black","black","gray","gray","black","gray","black","black","gray","gray","black","black","gray","gray","gray","black","black","black","black","black","gray","black","black","black","black","black","black","gray","black","gray","gray","black","black","black","black","black","gray","gray","black","black","black","gray","black","gray","black","gray","black","black","black","gray","gray","black","gray","gray","black","gray","gray","black"],"correct_spatial_judgement_key":"b","grid_symmetry":"asymmetric","correct_trial":1},{"rt":858,"stimulus":"<div class=\"container\"><div class=\"distractor-box\"></div><div class=\"distractor-box active-box\"></div><div class=\"distractor-box\"></div><div class=\"distractor-box\"></div><div class=\"distractor-box active-box\"></div><div class=\"distractor-box active-box\"></div><div class=\"distractor-box active-box\"></div><div class=\"distractor-box\"></div><div class=\"distractor-box\"></div><div class=\"distractor-box\"></div><div class=\"distractor-box\"></div><div class=\"distractor-box active-box\"></div><div class=\"distractor-box\"></div><div class=\"distractor-box active-box\"></div><div class=\"distractor-box\"></div><div class=\"distractor-box\"></div><div class=\"distractor-box active-box\"></div><div class=\"distractor-box\"></div><div class=\"distractor-box active-box\"></div><div class=\"distractor-box\"></div><div class=\"distractor-box active-box\"></div><div class=\"distractor-box\"></div><div class=\"distractor-box\"></div><div class=\"distractor-box\"></div><div class=\"distractor-box active-box\"></div><div class=\"distractor-box\"></div><div class=\"distractor-box\"></div><div class=\"distractor-box active-box\"></div><div class=\"distractor-box active-box\"></div><div class=\"distractor-box\"></div><div class=\"distractor-box\"></div><div class=\"distractor-box\"></div><div class=\"distractor-box active-box\"></div><div class=\"distractor-box active-box\"></div><div class=\"distractor-box active-box\"></div><div class=\"distractor-box\"></div><div class=\"distractor-box\"></div><div class=\"distractor-box active-box\"></div><div class=\"distractor-box\"></div><div class=\"distractor-box active-box\"></div><div class=\"distractor-box active-box\"></div><div class=\"distractor-box active-box\"></div><div class=\"distractor-box active-box\"></div><div class=\"distractor-box active-box\"></div><div class=\"distractor-box\"></div><div class=\"distractor-box\"></div><div class=\"distractor-box active-box\"></div><div class=\"distractor-box\"></div><div class=\"distractor-box active-box\"></div><div class=\"distractor-box\"></div><div class=\"distractor-box active-box\"></div><div class=\"distractor-box active-box\"></div><div class=\"distractor-box active-box\"></div><div class=\"distractor-box\"></div><div class=\"distractor-box active-box\"></div><div class=\"distractor-box active-box\"></div><div class=\"distractor-box active-box\"></div><div class=\"distractor-box\"></div><div class=\"distractor-box active-box\"></div><div class=\"distractor-box active-box\"></div><div class=\"distractor-box active-box\"></div><div class=\"distractor-box active-box\"></div><div class=\"distractor-box active-box\"></div><div class=\"distractor-box active-box\"></div></div>","response":"b","trial_id":"practice_inter-stimulus","exp_stage":"practice","condition":"operation","trial_duration":2500,"stimulus_duration":2500,"block_num":0,"choices":["b","y","g","r","e"],"trial_type":"html-keyboard-response","trial_index":9,"time_elapsed":4397617,"internal_node_id":"0.0-3.0-1.1-0.1","order_and_color_of_processing_boxes":["gray","black","gray","gray","black","black","black","gray","gray","gray","gray","black","gray","black","gray","gray","black","gray","black","gray","black","gray","gray","gray","black","gray","gray","black","black","gray","gray","gray","black","black","black","gray","gray","black","gray","black","black","black","black","black","gray","gray","black","gray","black","gray","black","black","black","gray","black","black","black","gray","black","black","black","black","black","black"],"correct_spatial_judgement_key":"b","grid_symmetry":"asymmetric","correct_trial":1},{"rt":null,"stimulus":"<div class=\"container\"><div class=\"distractor-box\"></div><div class=\"distractor-box\"></div><div class=\"distractor-box\"></div><div class=\"distractor-box active-box\"></div><div class=\"distractor-box active-box\"></div><div class=\"distractor-box\"></div><div class=\"distractor-box active-box\"></div><div class=\"distractor-box active-box\"></div><div class=\"distractor-box\"></div><div class=\"distractor-box active-box\"></div><div class=\"distractor-box\"></div><div class=\"distractor-box active-box\"></div><div class=\"distractor-box active-box\"></div><div class=\"distractor-box\"></div><div class=\"distractor-box\"></div><div class=\"distractor-box\"></div><div class=\"distractor-box active-box\"></div><div class=\"distractor-box active-box\"></div><div class=\"distractor-box active-box\"></div><div class=\"distractor-box active-box\"></div><div class=\"distractor-box active-box\"></div><div class=\"distractor-box active-box\"></div><div class=\"distractor-box\"></div><div class=\"distractor-box active-box\"></div><div class=\"distractor-box active-box\"></div><div class=\"distractor-box active-box\"></div><div class=\"distractor-box active-box\"></div><div class=\"distractor-box active-box\"></div><div class=\"distractor-box active-box\"></div><div class=\"distractor-box active-box\"></div><div class=\"distractor-box active-box\"></div><div class=\"distractor-box\"></div><div class=\"distractor-box\"></div><div class=\"distractor-box active-box\"></div><div class=\"distractor-box\"></div><div class=\"distractor-box\"></div><div class=\"distractor-box active-box\"></div><div class=\"distractor-box\"></div><div class=\"distractor-box\"></div><div class=\"distractor-box\"></div><div class=\"distractor-box\"></div><div class=\"distractor-box\"></div><div class=\"distractor-box\"></div><div class=\"distractor-box active-box\"></div><div class=\"distractor-box\"></div><div class=\"distractor-box active-box\"></div><div class=\"distractor-box\"></div><div class=\"distractor-box\"></div><div class=\"distractor-box\"></div><div class=\"distractor-box\"></div><div class=\"distractor-box active-box\"></div><div class=\"distractor-box active-box\"></div><div class=\"distractor-box active-box\"></div><div class=\"distractor-box active-box\"></div><div class=\"distractor-box\"></div><div class=\"distractor-box active-box\"></div><div class=\"distractor-box active-box\"></div><div class=\"distractor-box\"></div><div class=\"distractor-box\"></div><div class=\"distractor-box\"></div><div class=\"distractor-box active-box\"></div><div class=\"distractor-box active-box\"></div><div class=\"distractor-box\"></div><div class=\"distractor-box\"></div></div>","response":null,"trial_id":"practice_inter-stimulus","exp_stage":"practice","condition":"operation","trial_duration":2500,"stimulus_duration":2500,"block_num":0,"choices":["b","y","g","r","e"],"trial_type":"html-keyboard-response","trial_index":10,"time_elapsed":4397960,"internal_node_id":"0.0-3.0-1.2-0.2","order_and_color_of_processing_boxes":["gray","gray","gray","black","black","gray","black","black","gray","black","gray","black","black","gray","gray","gray","black","black","black","black","black","black","gray","black","black","black","black","black","black","black","black","gray","gray","black","gray","gray","black","gray","gray","gray","gray","gray","gray","black","gray","black","gray","gray","gray","gray","black","black","black","black","gray","black","black","gray","gray","gray","black","black","gray","gray"],"correct_spatial_judgement_key":"b","grid_symmetry":"asymmetric","correct_trial":null},{"rt":null,"stimulus":"<div class=\"container\"><div class=\"box\"></div><div class=\"box\"></div><div class=\"box\"></div><div class=\"box\"></div><div class=\"box active-box\"></div><div class=\"box\"></div><div class=\"box\"></div><div class=\"box\"></div><div class=\"box\"></div><div class=\"box\"></div><div class=\"box\"></div><div class=\"box\"></div><div class=\"box\"></div><div class=\"box\"></div><div class=\"box\"></div><div class=\"box\"></div></div>","response":null,"trial_id":"practice_stim","exp_stage":"practice","condition":"operation","trial_duration":1000,"stimulus_duration":1000,"block_num":0,"choices":["b","y","g","r","e"],"trial_type":"html-keyboard-response","trial_index":11,"time_elapsed":4398968,"internal_node_id":"0.0-3.0-2.0","spatial_location":4},{"rt":886,"stimulus":"<div class=\"container\"><div class=\"distractor-box\"></div><div class=\"distractor-box active-box\"></div><div class=\"distractor-box active-box\"></div><div class=\"distractor-box\"></div><div class=\"distractor-box\"></div><div class=\"distractor-box active-box\"></div><div class=\"distractor-box active-box\"></div><div class=\"distractor-box\"></div><div class=\"distractor-box\"></div><div class=\"distractor-box active-box\"></div><div class=\"distractor-box\"></div><div class=\"distractor-box\"></div><div class=\"distractor-box\"></div><div class=\"distractor-box\"></div><div class=\"distractor-box active-box\"></div><div class=\"distractor-box\"></div><div class=\"distractor-box\"></div><div class=\"distractor-box active-box\"></div><div class=\"distractor-box\"></div><div class=\"distractor-box\"></div><div class=\"distractor-box\"></div><div class=\"distractor-box\"></div><div class=\"distractor-box active-box\"></div><div class=\"distractor-box\"></div><div class=\"distractor-box active-box\"></div><div class=\"distractor-box active-box\"></div><div class=\"distractor-box active-box\"></div><div class=\"distractor-box active-box\"></div><div class=\"distractor-box active-box\"></div><div class=\"distractor-box active-box\"></div><div class=\"distractor-box active-box\"></div><div class=\"distractor-box active-box\"></div><div class=\"distractor-box active-box\"></div><div class=\"distractor-box active-box\"></div><div class=\"distractor-box\"></div><div class=\"distractor-box active-box\"></div><div class=\"distractor-box active-box\"></div><div class=\"distractor-box\"></div><div class=\"distractor-box active-box\"></div><div class=\"distractor-box active-box\"></div><div class=\"distractor-box active-box\"></div><div class=\"distractor-box active-box\"></div><div class=\"distractor-box active-box\"></div><div class=\"distractor-box\"></div><div class=\"distractor-box\"></div><div class=\"distractor-box active-box\"></div><div class=\"distractor-box active-box\"></div><div class=\"distractor-box active-box\"></div><div class=\"distractor-box active-box\"></div><div class=\"distractor-box\"></div><div class=\"distractor-box\"></div><div class=\"distractor-box\"></div><div class=\"distractor-box\"></div><div class=\"distractor-box\"></div><div class=\"distractor-box\"></div><div class=\"distractor-box active-box\"></div><div class=\"distractor-box\"></div><div class=\"distractor-box active-box\"></div><div class=\"distractor-box\"></div><div class=\"distractor-box active-box\"></div><div class=\"distractor-box active-box\"></div><div class=\"distractor-box\"></div><div class=\"distractor-box active-box\"></div><div class=\"distractor-box\"></div></div>","response":"g","trial_id":"practice_inter-stimulus","exp_stage":"practice","condition":"operation","trial_duration":2500,"stimulus_duration":2500,"block_num":0,"choices":["b","y","g","r","e"],"trial_type":"html-keyboard-response","trial_index":12,"time_elapsed":4399854,"internal_node_id":"0.0-3.0-3.0-0.0","order_and_color_of_processing_boxes":["gray","black","black","gray","gray","black","black","gray","gray","black","gray","gray","gray","gray","black","gray","gray","black","gray","gray","gray","gray","black","gray","black","black","black","black","black","black","black","black","black","black","gray","black","black","gray","black","black","black","black","black","gray","gray","black","black","black","black","gray","gray","gray","gray","gray","gray","black","gray","black","gray","black","black","gray","black","gray"],"correct_spatial_judgement_key":"g","grid_symmetry":"symmetric","correct_trial":1},{"rt":848,"stimulus":"<div class=\"container\"><div class=\"distractor-box\"></div><div class=\"distractor-box active-box\"></div><div class=\"distractor-box active-box\"></div><div class=\"distractor-box\"></div><div class=\"distractor-box\"></div><div class=\"distractor-box active-box\"></div><div class=\"distractor-box active-box\"></div><div class=\"distractor-box\"></div><div class=\"distractor-box active-box\"></div><div class=\"distractor-box active-box\"></div><div class=\"distractor-box active-box\"></div><div class=\"distractor-box\"></div><div class=\"distractor-box\"></div><div class=\"distractor-box active-box\"></div><div class=\"distractor-box active-box\"></div><div class=\"distractor-box active-box\"></div><div class=\"distractor-box active-box\"></div><div class=\"distractor-box\"></div><div class=\"distractor-box active-box\"></div><div class=\"distractor-box active-box\"></div><div class=\"distractor-box active-box\"></div><div class=\"distractor-box active-box\"></div><div class=\"distractor-box\"></div><div class=\"distractor-box active-box\"></div><div class=\"distractor-box\"></div><div class=\"distractor-box\"></div><div class=\"distractor-box active-box\"></div><div class=\"distractor-box active-box\"></div><div class=\"distractor-box active-box\"></div><div class=\"distractor-box active-box\"></div><div class=\"distractor-box\"></div><div class=\"distractor-box\"></div><div class=\"distractor-box active-box\"></div><div class=\"distractor-box\"></div><div class=\"distractor-box active-box\"></div><div class=\"distractor-box active-box\"></div><div class=\"distractor-box active-box\"></div><div class=\"distractor-box active-box\"></div><div class=\"distractor-box\"></div><div class=\"distractor-box active-box\"></div><div class=\"distractor-box active-box\"></div><div class=\"distractor-box\"></div><div class=\"distractor-box active-box\"></div><div class=\"distractor-box active-box\"></div><div class=\"distractor-box active-box\"></div><div class=\"distractor-box active-box\"></div><div class=\"distractor-box\"></div><div class=\"distractor-box active-box\"></div><div class=\"distractor-box active-box\"></div><div class=\"distractor-box\"></div><div class=\"distractor-box active-box\"></div><div class=\"distractor-box\"></div><div class=\"distractor-box\"></div><div class=\"distractor-box active-box\"></div><div class=\"distractor-box\"></div><div class=\"distractor-box active-box\"></div><div class=\"distractor-box active-box\"></div><div class=\"distractor-box\"></div><div class=\"distractor-box active-box\"></div><div class=\"distractor-box active-box\"></div><div class=\"distractor-box active-box\"></div><div class=\"distractor-box active-box\"></div><div class=\"distractor-box\"></div><div class=\"distractor-box active-box\"></div></div>","response":"g","trial_id":"practice_inter-stimulus","exp_stage":"practice","condition":"operation","trial_duration":2500,"stimulus_duration":2500,"block_num":0,"choices":["b","y","g","r","e"],"trial_type":"html-keyboard-response","trial_index":13,"time_elapsed":4400706,"internal_node_id":"0.0-3.0-3.1-0.1","order_and_color_of_processing_boxes":["gray","black","black","gray","gray","black","black","gray","black","black","black","gray","gray","black","black","black","black","gray","black","black","black","black","gray","black","gray","gray","black","black","black","black","gray","gray","black","gray","black","black","black","black","gray","black","black","gray","black","black","black","black","gray","black","black","gray","black","gray","gray","black","gray","black","black","gray","black","black","black","black","gray","black"],"correct_spatial_judgement_key":"g","grid_symmetry":"symmetric","correct_trial":1},{"rt":661,"stimulus":"<div class=\"container\"><div class=\"distractor-box\"></div><div class=\"distractor-box\"></div><div class=\"distractor-box\"></div><div class=\"distractor-box\"></div><div class=\"distractor-box\"></div><div class=\"distractor-box\"></div><div class=\"distractor-box\"></div><div class=\"distractor-box\"></div><div class=\"distractor-box active-box\"></div><div class=\"distractor-box active-box\"></div><div class=\"distractor-box\"></div><div class=\"distractor-box\"></div><div class=\"distractor-box\"></div><div class=\"distractor-box\"></div><div class=\"distractor-box active-box\"></div><div class=\"distractor-box active-box\"></div><div class=\"distractor-box\"></div><div class=\"distractor-box active-box\"></div><div class=\"distractor-box\"></div><div class=\"distractor-box\"></div><div class=\"distractor-box\"></div><div class=\"distractor-box\"></div><div class=\"distractor-box active-box\"></div><div class=\"distractor-box\"></div><div class=\"distractor-box\"></div><div class=\"distractor-box active-box\"></div><div class=\"distractor-box active-box\"></div><div class=\"distractor-box active-box\"></div><div class=\"distractor-box active-box\"></div><div class=\"distractor-box active-box\"></div><div class=\"distractor-box active-box\"></div><div class=\"distractor-box\"></div><div class=\"distractor-box\"></div><div class=\"distractor-box\"></div><div class=\"distractor-box\"></div><div class=\"distractor-box\"></div><div class=\"distractor-box\"></div><div class=\"distractor-box\"></div><div class=\"distractor-box\"></div><div class=\"distractor-box\"></div><div class=\"distractor-box active-box\"></div><div class=\"distractor-box active-box\"></div><div class=\"distractor-box\"></div><div class=\"distractor-box active-box\"></div><div class=\"distractor-box active-box\"></div><div class=\"distractor-box\"></div><div class=\"distractor-box active-box\"></div><div class=\"distractor-box active-box\"></div><div class=\"distractor-box active-box\"></div><div class=\"distractor-box active-box\"></div><div class=\"distractor-box\"></div><div class=\"distractor-box\"></div><div class=\"distractor-box\"></div><div class=\"distractor-box\"></div><div class=\"distractor-box active-box\"></div><div class=\"distractor-box active-box\"></div><div class=\"distractor-box\"></div><div class=\"distractor-box\"></div><div class=\"distractor-box active-box\"></div><div class=\"distractor-box active-box\"></div><div class=\"distractor-box active-box\"></div><div class=\"distractor-box active-box\"></div><div class=\"distractor-box\"></div><div class=\"distractor-box\"></div></div>","response":"b","trial_id":"practice_inter-stimulus","exp_stage":"practice","condition":"operation","trial_duration":2500,"stimulus_duration":2500,"block_num":0,"choices":["b","y","g","r","e"],"trial_type":"html-keyboard-response","trial_index":14,"time_elapsed":4401369,"internal_node_id":"0.0-3.0-3.2-0.2","order_and_color_of_processing_boxes":["gray","gray","gray","gray","gray","gray","gray","gray","black","black","gray","gray","gray","gray","black","black","gray","black","gray","gray","gray","gray","black","gray","gray","black","black","black","black","black","black","gray","gray","gray","gray","gray","gray","gray","gray","gray","black","black","gray","black","black","gray","black","black","black","black","gray","gray","gray","gray","black","black","gray","gray","black","black","black","black","gray","gray"],"correct_spatial_judgement_key":"g","grid_symmetry":"symmetric","correct_trial":0},{"rt":null,"stimulus":"<div class=\"container\"><div class=\"distractor-box active-box\"></div><div class=\"distractor-box\"></div><div class=\"distractor-box\"></div><div class=\"distractor-box\"></div><div class=\"distractor-box\"></div><div class=\"distractor-box\"></div><div class=\"distractor-box\"></div><div class=\"distractor-box active-box\"></div><div class=\"distractor-box\"></div><div class=\"distractor-box\"></div><div class=\"distractor-box active-box\"></div><div class=\"distractor-box active-box\"></div><div class=\"distractor-box active-box\"></div><div class=\"distractor-box active-box\"></div><div class=\"distractor-box\"></div><div class=\"distractor-box\"></div><div class=\"distractor-box\"></div><div class=\"distractor-box active-box\"></div><div class=\"distractor-box active-box\"></div><div class=\"distractor-box\"></div><div class=\"distractor-box\"></div><div class=\"distractor-box active-box\"></div><div class=\"distractor-box active-box\"></div><div class=\"distractor-box\"></div><div class=\"distractor-box active-box\"></div><div class=\"distractor-box active-box\"></div><div class=\"distractor-box active-box\"></div><div class=\"distractor-box\"></div><div class=\"distractor-box\"></div><div class=\"distractor-box active-box\"></div><div class=\"distractor-box active-box\"></div><div class=\"distractor-box active-box\"></div><div class=\"distractor-box\"></div><div class=\"distractor-box active-box\"></div><div class=\"distractor-box\"></div><div class=\"distractor-box\"></div><div class=\"distractor-box\"></div><div class=\"distractor-box\"></div><div class=\"distractor-box active-box\"></div><div class=\"distractor-box\"></div><div class=\"distractor-box active-box\"></div><div class=\"distractor-box\"></div><div class=\"distractor-box\"></div><div class=\"distractor-box active-box\"></div><div class=\"distractor-box active-box\"></div><div class=\"distractor-box\"></div><div class=\"distractor-box\"></div><div class=\"distractor-box active-box\"></div><div class=\"distractor-box\"></div><div class=\"distractor-box active-box\"></div><div class=\"distractor-box active-box\"></div><div class=\"distractor-box active-box\"></div><div class=\"distractor-box active-box\"></div><div class=\"distractor-box active-box\"></div><div class=\"distractor-box active-box\"></div><div class=\"distractor-box\"></div><div class=\"distractor-box\"></div><div class=\"distractor-box active-box\"></div><div class=\"distractor-box\"></div><div class=\"distractor-box\"></div><div class=\"distractor-box\"></div><div class=\"distractor-box\"></div><div class=\"distractor-box active-box\"></div><div class=\"distractor-box\"></div></div>","response":null,"trial_id":"practice_inter-stimulus","exp_stage":"practice","condition":"operation","trial_duration":2500,"stimulus_duration":2500,"block_num":0,"choices":["b","y","g","r","e"],"trial_type":"html-keyboard-response","trial_index":15,"time_elapsed":4401473,"internal_node_id":"0.0-3.0-3.3-0.3","order_and_color_of_processing_boxes":["black","gray","gray","gray","gray","gray","gray","black","gray","gray","black","black","black","black","gray","gray","gray","black","black","gray","gray","black","black","gray","black","black","black","gray","gray","black","black","black","gray","black","gray","gray","gray","gray","black","gray","black","gray","gray","black","black","gray","gray","black","gray","black","black","black","black","black","black","gray","gray","black","gray","gray","gray","gray","black","gray"],"correct_spatial_judgement_key":"g","grid_symmetry":"symmetric","correct_trial":null},{"rt":null,"stimulus":"<div class=\"container\"><div class=\"box\"></div><div class=\"box\"></div><div class=\"box\"></div><div class=\"box\"></div><div class=\"box\"></div><div class=\"box\"></div><div class=\"box\"></div><div class=\"box\"></div><div class=\"box\"></div><div class=\"box\"></div><div class=\"box\"></div><div class=\"box active-box\"></div><div class=\"box\"></div><div class=\"box\"></div><div class=\"box\"></div><div class=\"box\"></div></div>","response":null,"trial_id":"practice_stim","exp_stage":"practice","condition":"operation","trial_duration":1000,"stimulus_duration":1000,"block_num":0,"choices":["b","y","g","r","e"],"trial_type":"html-keyboard-response","trial_index":16,"time_elapsed":4402480,"internal_node_id":"0.0-3.0-4.0","spatial_location":11},{"rt":1369,"stimulus":"<div class=\"container\"><div class=\"distractor-box\"></div><div class=\"distractor-box active-box\"></div><div class=\"distractor-box active-box\"></div><div class=\"distractor-box active-box\"></div><div class=\"distractor-box\"></div><div class=\"distractor-box\"></div><div class=\"distractor-box\"></div><div class=\"distractor-box\"></div><div class=\"distractor-box active-box\"></div><div class=\"distractor-box\"></div><div class=\"distractor-box\"></div><div class=\"distractor-box active-box\"></div><div class=\"distractor-box\"></div><div class=\"distractor-box\"></div><div class=\"distractor-box active-box\"></div><div class=\"distractor-box active-box\"></div><div class=\"distractor-box\"></div><div class=\"distractor-box active-box\"></div><div class=\"distractor-box active-box\"></div><div class=\"distractor-box\"></div><div class=\"distractor-box\"></div><div class=\"distractor-box active-box\"></div><div class=\"distractor-box\"></div><div class=\"distractor-box active-box\"></div><div class=\"distractor-box\"></div><div class=\"distractor-box\"></div><div class=\"distractor-box active-box\"></div><div class=\"distractor-box\"></div><div class=\"distractor-box\"></div><div class=\"distractor-box active-box\"></div><div class=\"distractor-box\"></div><div class=\"distractor-box\"></div><div class=\"distractor-box\"></div><div class=\"distractor-box\"></div><div class=\"distractor-box active-box\"></div><div class=\"distractor-box active-box\"></div><div class=\"distractor-box\"></div><div class=\"distractor-box active-box\"></div><div class=\"distractor-box active-box\"></div><div class=\"distractor-box active-box\"></div><div class=\"distractor-box\"></div><div class=\"distractor-box active-box\"></div><div class=\"distractor-box active-box\"></div><div class=\"distractor-box active-box\"></div><div class=\"distractor-box\"></div><div class=\"distractor-box\"></div><div class=\"distractor-box\"></div><div class=\"distractor-box\"></div><div class=\"distractor-box active-box\"></div><div class=\"distractor-box\"></div><div class=\"distractor-box active-box\"></div><div class=\"distractor-box\"></div><div class=\"distractor-box\"></div><div class=\"distractor-box\"></div><div class=\"distractor-box active-box\"></div><div class=\"distractor-box active-box\"></div><div class=\"distractor-box\"></div><div class=\"distractor-box active-box\"></div><div class=\"distractor-box active-box\"></div><div class=\"distractor-box active-box\"></div><div class=\"distractor-box active-box\"></div><div class=\"distractor-box active-box\"></div><div class=\"distractor-box active-box\"></div><div class=\"distractor-box active-box\"></div></div>","response":"b","trial_id":"practice_inter-stimulus","exp_stage":"practice","condition":"operation","trial_duration":2500,"stimulus_duration":2500,"block_num":0,"choices":["b","y","g","r","e"],"trial_type":"html-keyboard-response","trial_index":17,"time_elapsed":4403850,"internal_node_id":"0.0-3.0-5.0-0.0","order_and_color_of_processing_boxes":["gray","black","black","black","gray","gray","gray","gray","black","gray","gray","black","gray","gray","black","black","gray","black","black","gray","gray","black","gray","black","gray","gray","black","gray","gray","black","gray","gray","gray","gray","black","black","gray","black","black","black","gray","black","black","black","gray","gray","gray","gray","black","gray","black","gray","gray","gray","black","black","gray","black","black","black","black","black","black","black"],"correct_spatial_judgement_key":"b","grid_symmetry":"asymmetric","correct_trial":1},{"rt":647,"stimulus":"<div class=\"container\"><div class=\"distractor-box active-box\"></div><div class=\"distractor-box active-box\"></div><div class=\"distractor-box\"></div><div class=\"distractor-box active-box\"></div><div class=\"distractor-box\"></div><div class=\"distractor-box\"></div><div class=\"distractor-box\"></div><div class=\"distractor-box active-box\"></div><div class=\"distractor-box\"></div><div class=\"distractor-box\"></div><div class=\"distractor-box active-box\"></div><div class=\"distractor-box active-box\"></div><div class=\"distractor-box\"></div><div class=\"distractor-box active-box\"></div><div class=\"distractor-box active-box\"></div><div class=\"distractor-box\"></div><div class=\"distractor-box active-box\"></div><div class=\"distractor-box active-box\"></div><div class=\"distractor-box active-box\"></div><div class=\"distractor-box\"></div><div class=\"distractor-box\"></div><div class=\"distractor-box\"></div><div class=\"distractor-box active-box\"></div><div class=\"distractor-box\"></div><div class=\"distractor-box\"></div><div class=\"distractor-box active-box\"></div><div class=\"distractor-box\"></div><div class=\"distractor-box active-box\"></div><div class=\"distractor-box active-box\"></div><div class=\"distractor-box active-box\"></div><div class=\"distractor-box active-box\"></div><div class=\"distractor-box active-box\"></div><div class=\"distractor-box\"></div><div class=\"distractor-box\"></div><div class=\"distractor-box\"></div><div class=\"distractor-box active-box\"></div><div class=\"distractor-box\"></div><div class=\"distractor-box active-box\"></div><div class=\"distractor-box\"></div><div class=\"distractor-box\"></div><div class=\"distractor-box\"></div><div class=\"distractor-box active-box\"></div><div class=\"distractor-box active-box\"></div><div class=\"distractor-box active-box\"></div><div class=\"distractor-box\"></div><div class=\"distractor-box\"></div><div class=\"distractor-box active-box\"></div><div class=\"distractor-box active-box\"></div><div class=\"distractor-box active-box\"></div><div class=\"distractor-box\"></div><div class=\"distractor-box active-box\"></div><div class=\"distractor-box active-box\"></div><div class=\"distractor-box\"></div><div class=\"distractor-box\"></div><div class=\"distractor-box\"></div><div class=\"distractor-box\"></div><div class=\"distractor-box active-box\"></div><div class=\"distractor-box active-box\"></div><div class=\"distractor-box active-box\"></div><div class=\"distractor-box active-box\"></div><div class=\"distractor-box active-box\"></div><div class=\"distractor-box\"></div><div class=\"distractor-box\"></div><div class=\"distractor-box active-box\"></div></div>","response":"b","trial_id":"practice_inter-stimulus","exp_stage":"practice","condition":"operation","trial_duration":2500,"stimulus_duration":2500,"block_num":0,"choices":["b","y","g","r","e"],"trial_type":"html-keyboard-response","trial_index":18,"time_elapsed":4404500,"internal_node_id":"0.0-3.0-5.1-0.1","order_and_color_of_processing_boxes":["black","black","gray","black","gray","gray","gray","black","gray","gray","black","black","gray","black","black","gray","black","black","black","gray","gray","gray","black","gray","gray","black","gray","black","black","black","black","black","gray","gray","gray","black","gray","black","gray","gray","gray","black","black","black","gray","gray","black","black","black","gray","black","black","gray","gray","gray","gray","black","black","black","black","black","gray","gray","black"],"correct_spatial_judgement_key":"b","grid_symmetry":"asymmetric","correct_trial":1},{"rt":null,"stimulus":"<div class=\"container\"><div class=\"distractor-box\"></div><div class=\"distractor-box active-box\"></div><div class=\"distractor-box\"></div><div class=\"distractor-box\"></div><div class=\"distractor-box\"></div><div class=\"distractor-box\"></div><div class=\"distractor-box active-box\"></div><div class=\"distractor-box\"></div><div class=\"distractor-box\"></div><div class=\"distractor-box active-box\"></div><div class=\"distractor-box active-box\"></div><div class=\"distractor-box\"></div><div class=\"distractor-box\"></div><div class=\"distractor-box active-box\"></div><div class=\"distractor-box active-box\"></div><div class=\"distractor-box\"></div><div class=\"distractor-box\"></div><div class=\"distractor-box\"></div><div class=\"distractor-box active-box\"></div><div class=\"distractor-box\"></div><div class=\"distractor-box\"></div><div class=\"distractor-box active-box\"></div><div class=\"distractor-box\"></div><div class=\"distractor-box\"></div><div class=\"distractor-box\"></div><div class=\"distractor-box active-box\"></div><div class=\"distractor-box\"></div><div class=\"distractor-box active-box\"></div><div class=\"distractor-box active-box\"></div><div class=\"distractor-box\"></div><div class=\"distractor-box active-box\"></div><div class=\"distractor-box\"></div><div class=\"distractor-box active-box\"></div><div class=\"distractor-box active-box\"></div><div class=\"distractor-box active-box\"></div><div class=\"distractor-box\"></div><div class=\"distractor-box\"></div><div class=\"distractor-box active-box\"></div><div class=\"distractor-box active-box\"></div><div class=\"distractor-box active-box\"></div><div class=\"distractor-box active-box\"></div><div class=\"distractor-box active-box\"></div><div class=\"distractor-box\"></div><div class=\"distractor-box\"></div><div class=\"distractor-box\"></div><div class=\"distractor-box\"></div><div class=\"distractor-box active-box\"></div><div class=\"distractor-box active-box\"></div><div class=\"distractor-box active-box\"></div><div class=\"distractor-box\"></div><div class=\"distractor-box\"></div><div class=\"distractor-box active-box\"></div><div class=\"distractor-box active-box\"></div><div class=\"distractor-box\"></div><div class=\"distractor-box\"></div><div class=\"distractor-box active-box\"></div><div class=\"distractor-box\"></div><div class=\"distractor-box\"></div><div class=\"distractor-box active-box\"></div><div class=\"distractor-box active-box\"></div><div class=\"distractor-box active-box\"></div><div class=\"distractor-box active-box\"></div><div class=\"distractor-box\"></div><div class=\"distractor-box\"></div></div>","response":null,"trial_id":"practice_inter-stimulus","exp_stage":"practice","condition":"operation","trial_duration":2500,"stimulus_duration":2500,"block_num":0,"choices":["b","y","g","r","e"],"trial_type":"html-keyboard-response","trial_index":19,"time_elapsed":4404987,"internal_node_id":"0.0-3.0-5.2-0.2","order_and_color_of_processing_boxes":["gray","black","gray","gray","gray","gray","black","gray","gray","black","black","gray","gray","black","black","gray","gray","gray","black","gray","gray","black","gray","gray","gray","black","gray","black","black","gray","black","gray","black","black","black","gray","gray","black","black","black","black","black","gray","gray","gray","gray","black","black","black","gray","gray","black","black","gray","gray","black","gray","gray","black","black","black","black","gray","gray"],"correct_spatial_judgement_key":"g","grid_symmetry":"symmetric","correct_trial":null},{"rt":null,"stimulus":"<div class=\"container\"><div class=\"box active-box\"></div><div class=\"box\"></div><div class=\"box\"></div><div class=\"box\"></div><div class=\"box\"></div><div class=\"box\"></div><div class=\"box\"></div><div class=\"box\"></div><div class=\"box\"></div><div class=\"box\"></div><div class=\"box\"></div><div class=\"box\"></div><div class=\"box\"></div><div class=\"box\"></div><div class=\"box\"></div><div class=\"box\"></div></div>","response":null,"trial_id":"practice_stim","exp_stage":"practice","condition":"operation","trial_duration":1000,"stimulus_duration":1000,"block_num":0,"choices":["b","y","g","r","e"],"trial_type":"html-keyboard-response","trial_index":20,"time_elapsed":4405993,"internal_node_id":"0.0-3.0-6.0","spatial_location":0},{"rt":905,"stimulus":"<div class=\"container\"><div class=\"distractor-box\"></div><div class=\"distractor-box active-box\"></div><div class=\"distractor-box active-box\"></div><div class=\"distractor-box\"></div><div class=\"distractor-box\"></div><div class=\"distractor-box active-box\"></div><div class=\"distractor-box active-box\"></div><div class=\"distractor-box\"></div><div class=\"distractor-box active-box\"></div><div class=\"distractor-box\"></div><div class=\"distractor-box active-box\"></div><div class=\"distractor-box\"></div><div class=\"distractor-box\"></div><div class=\"distractor-box active-box\"></div><div class=\"distractor-box\"></div><div class=\"distractor-box active-box\"></div><div class=\"distractor-box active-box\"></div><div class=\"distractor-box\"></div><div class=\"distractor-box active-box\"></div><div class=\"distractor-box active-box\"></div><div class=\"distractor-box active-box\"></div><div class=\"distractor-box active-box\"></div><div class=\"distractor-box\"></div><div class=\"distractor-box active-box\"></div><div class=\"distractor-box\"></div><div class=\"distractor-box\"></div><div class=\"distractor-box active-box\"></div><div class=\"distractor-box active-box\"></div><div class=\"distractor-box active-box\"></div><div class=\"distractor-box active-box\"></div><div class=\"distractor-box\"></div><div class=\"distractor-box\"></div><div class=\"distractor-box active-box\"></div><div class=\"distractor-box\"></div><div class=\"distractor-box active-box\"></div><div class=\"distractor-box active-box\"></div><div class=\"distractor-box active-box\"></div><div class=\"distractor-box active-box\"></div><div class=\"distractor-box\"></div><div class=\"distractor-box active-box\"></div><div class=\"distractor-box active-box\"></div><div class=\"distractor-box\"></div><div class=\"distractor-box active-box\"></div><div class=\"distractor-box active-box\"></div><div class=\"distractor-box active-box\"></div><div class=\"distractor-box active-box\"></div><div class=\"distractor-box\"></div><div class=\"distractor-box active-box\"></div><div class=\"distractor-box active-box\"></div><div class=\"distractor-box\"></div><div class=\"distractor-box active-box\"></div><div class=\"distractor-box\"></div><div class=\"distractor-box\"></div><div class=\"distractor-box active-box\"></div><div class=\"distractor-box\"></div><div class=\"distractor-box active-box\"></div><div class=\"distractor-box active-box\"></div><div class=\"distractor-box\"></div><div class=\"distractor-box active-box\"></div><div class=\"distractor-box active-box\"></div><div class=\"distractor-box active-box\"></div><div class=\"distractor-box active-box\"></div><div class=\"distractor-box\"></div><div class=\"distractor-box active-box\"></div></div>","response":"g","trial_id":"practice_inter-stimulus","exp_stage":"practice","condition":"operation","trial_duration":2500,"stimulus_duration":2500,"block_num":0,"choices":["b","y","g","r","e"],"trial_type":"html-keyboard-response","trial_index":21,"time_elapsed":4406901,"internal_node_id":"0.0-3.0-7.0-0.0","order_and_color_of_processing_boxes":["gray","black","black","gray","gray","black","black","gray","black","gray","black","gray","gray","black","gray","black","black","gray","black","black","black","black","gray","black","gray","gray","black","black","black","black","gray","gray","black","gray","black","black","black","black","gray","black","black","gray","black","black","black","black","gray","black","black","gray","black","gray","gray","black","gray","black","black","gray","black","black","black","black","gray","black"],"correct_spatial_judgement_key":"g","grid_symmetry":"symmetric","correct_trial":1},{"rt":720,"stimulus":"<div class=\"container\"><div class=\"distractor-box\"></div><div class=\"distractor-box\"></div><div class=\"distractor-box active-box\"></div><div class=\"distractor-box\"></div><div class=\"distractor-box active-box\"></div><div class=\"distractor-box\"></div><div class=\"distractor-box\"></div><div class=\"distractor-box\"></div><div class=\"distractor-box\"></div><div class=\"distractor-box\"></div><div class=\"distractor-box active-box\"></div><div class=\"distractor-box\"></div><div class=\"distractor-box active-box\"></div><div class=\"distractor-box active-box\"></div><div class=\"distractor-box active-box\"></div><div class=\"distractor-box active-box\"></div><div class=\"distractor-box active-box\"></div><div class=\"distractor-box active-box\"></div><div class=\"distractor-box active-box\"></div><div class=\"distractor-box\"></div><div class=\"distractor-box active-box\"></div><div class=\"distractor-box\"></div><div class=\"distractor-box active-box\"></div><div class=\"distractor-box\"></div><div class=\"distractor-box active-box\"></div><div class=\"distractor-box active-box\"></div><div class=\"distractor-box\"></div><div class=\"distractor-box active-box\"></div><div class=\"distractor-box active-box\"></div><div class=\"distractor-box active-box\"></div><div class=\"distractor-box active-box\"></div><div class=\"distractor-box active-box\"></div><div class=\"distractor-box\"></div><div class=\"distractor-box\"></div><div class=\"distractor-box\"></div><div class=\"distractor-box\"></div><div class=\"distractor-box\"></div><div class=\"distractor-box active-box\"></div><div class=\"distractor-box active-box\"></div><div class=\"distractor-box active-box\"></div><div class=\"distractor-box active-box\"></div><div class=\"distractor-box\"></div><div class=\"distractor-box\"></div><div class=\"distractor-box active-box\"></div><div class=\"distractor-box active-box\"></div><div class=\"distractor-box\"></div><div class=\"distractor-box\"></div><div class=\"distractor-box active-box\"></div><div class=\"distractor-box active-box\"></div><div class=\"distractor-box active-box\"></div><div class=\"distractor-box active-box\"></div><div class=\"distractor-box\"></div><div class=\"distractor-box active-box\"></div><div class=\"distractor-box\"></div><div class=\"distractor-box active-box\"></div><div class=\"distractor-box\"></div><div class=\"distractor-box\"></div><div class=\"distractor-box active-box\"></div><div class=\"distractor-box\"></div><div class=\"distractor-box\"></div><div class=\"distractor-box active-box\"></div><div class=\"distractor-box active-box\"></div><div class=\"distractor-box active-box\"></div><div class=\"distractor-box\"></div></div>","response":"b","trial_id":"practice_inter-stimulus","exp_stage":"practice","condition":"operation","trial_duration":2500,"stimulus_duration":2500,"block_num":0,"choices":["b","y","g","r","e"],"trial_type":"html-keyboard-response","trial_index":22,"time_elapsed":4407622,"internal_node_id":"0.0-3.0-7.1-0.1","order_and_color_of_processing_boxes":["gray","gray","black","gray","black","gray","gray","gray","gray","gray","black","gray","black","black","black","black","black","black","black","gray","black","gray","black","gray","black","black","gray","black","black","black","black","black","gray","gray","gray","gray","gray","black","black","black","black","gray","gray","black","black","gray","gray","black","black","black","black","gray","black","gray","black","gray","gray","black","gray","gray","black","black","black","gray"],"correct_spatial_judgement_key":"b","grid_symmetry":"asymmetric","correct_trial":1},{"rt":null,"stimulus":"<div class=\"container\"><div class=\"distractor-box active-box\"></div><div class=\"distractor-box active-box\"></div><div class=\"distractor-box active-box\"></div><div class=\"distractor-box\"></div><div class=\"distractor-box\"></div><div class=\"distractor-box active-box\"></div><div class=\"distractor-box active-box\"></div><div class=\"distractor-box active-box\"></div><div class=\"distractor-box\"></div><div class=\"distractor-box active-box\"></div><div class=\"distractor-box active-box\"></div><div class=\"distractor-box\"></div><div class=\"distractor-box\"></div><div class=\"distractor-box active-box\"></div><div class=\"distractor-box active-box\"></div><div class=\"distractor-box\"></div><div class=\"distractor-box\"></div><div class=\"distractor-box active-box\"></div><div class=\"distractor-box\"></div><div class=\"distractor-box\"></div><div class=\"distractor-box\"></div><div class=\"distractor-box\"></div><div class=\"distractor-box active-box\"></div><div class=\"distractor-box\"></div><div class=\"distractor-box active-box\"></div><div class=\"distractor-box active-box\"></div><div class=\"distractor-box\"></div><div class=\"distractor-box active-box\"></div><div class=\"distractor-box active-box\"></div><div class=\"distractor-box\"></div><div class=\"distractor-box active-box\"></div><div class=\"distractor-box active-box\"></div><div class=\"distractor-box\"></div><div class=\"distractor-box\"></div><div class=\"distractor-box\"></div><div class=\"distractor-box active-box\"></div><div class=\"distractor-box active-box\"></div><div class=\"distractor-box\"></div><div class=\"distractor-box\"></div><div class=\"distractor-box\"></div><div class=\"distractor-box\"></div><div class=\"distractor-box active-box\"></div><div class=\"distractor-box\"></div><div class=\"distractor-box\"></div><div class=\"distractor-box\"></div><div class=\"distractor-box\"></div><div class=\"distractor-box active-box\"></div><div class=\"distractor-box\"></div><div class=\"distractor-box active-box\"></div><div class=\"distractor-box\"></div><div class=\"distractor-box active-box\"></div><div class=\"distractor-box active-box\"></div><div class=\"distractor-box active-box\"></div><div class=\"distractor-box active-box\"></div><div class=\"distractor-box\"></div><div class=\"distractor-box active-box\"></div><div class=\"distractor-box\"></div><div class=\"distractor-box active-box\"></div><div class=\"distractor-box active-box\"></div><div class=\"distractor-box\"></div><div class=\"distractor-box\"></div><div class=\"distractor-box active-box\"></div><div class=\"distractor-box active-box\"></div><div class=\"distractor-box\"></div></div>","response":null,"trial_id":"practice_inter-stimulus","exp_stage":"practice","condition":"operation","trial_duration":2500,"stimulus_duration":2500,"block_num":0,"choices":["b","y","g","r","e"],"trial_type":"html-keyboard-response","trial_index":23,"time_elapsed":4408501,"internal_node_id":"0.0-3.0-7.2-0.2","order_and_color_of_processing_boxes":["black","black","black","gray","gray","black","black","black","gray","black","black","gray","gray","black","black","gray","gray","black","gray","gray","gray","gray","black","gray","black","black","gray","black","black","gray","black","black","gray","gray","gray","black","black","gray","gray","gray","gray","black","gray","gray","gray","gray","black","gray","black","gray","black","black","black","black","gray","black","gray","black","black","gray","gray","black","black","gray"],"correct_spatial_judgement_key":"g","grid_symmetry":"symmetric","correct_trial":null},{"rt":63,"stimulus":"<div class=\"container\"><div class=\"box\"></div><div class=\"box\"></div><div class=\"box\"></div><div class=\"box\"></div><div class=\"box\"></div><div class=\"box active-box\"></div><div class=\"box\"></div><div class=\"box\"></div><div class=\"box\"></div><div class=\"box\"></div><div class=\"box\"></div><div class=\"box\"></div><div class=\"box\"></div><div class=\"box\"></div><div class=\"box\"></div><div class=\"box\"></div></div>","response":"g","trial_id":"practice_stim","exp_stage":"practice","condition":"operation","trial_duration":1000,"stimulus_duration":1000,"block_num":0,"choices":["b","y","g","r","e"],"trial_type":"html-keyboard-response","trial_index":24,"time_elapsed":4409507,"internal_node_id":"0.0-3.0-8.0","spatial_location":5},{"rt":723,"stimulus":"<div class=\"container\"><div class=\"box response-active\"></div><div class=\"box\"></div><div class=\"box\"></div><div class=\"box\"></div><div class=\"box\"></div><div class=\"box\"></div><div class=\"box\"></div><div class=\"box\"></div><div class=\"box\"></div><div class=\"box\"></div><div class=\"box\"></div><div class=\"box\"></div><div class=\"box\"></div><div class=\"box\"></div><div class=\"box\"></div><div class=\"box\"></div></div>","response":"y","trial_id":"practice_trial","exp_stage":"practice","trial_duration":7000,"stimulus_duration":7000,"choices":["b","y","g","r","e"],"trial_type":"html-keyboard-response","trial_index":25,"time_elapsed":4416513,"internal_node_id":"0.0-3.0-9.0","valid_responses":[4,11,2,0],"extra_responses":null,"duplicate_responses":null,"duplicate_responses_timestamps":null,"extra_responses_timestamps":null,"correct_trial":0,"condition":"operation","block_num":0,"starting_cell":0,"correct_cell_order":[4,11,0,5],"valid_responses_timestamps":[1086,2642,4471,5349],"moving_through_grid_timestamps":[725,1444,1764,1953,2320,3290,3668,4113,4746,4978],"cell_order_through_grid":[4,5,6,7,11,10,6,2,1,0]},{"rt":null,"stimulus":"<div class = centerbox><div class = fixation>+</div></div>","response":null,"trial_id":"practice_ITI","exp_stage":"practice","block_num":0,"condition":"operation","choices":["b","y","g","r","e"],"ITIParams":0.5,"trial_type":"html-keyboard-response","trial_index":26,"time_elapsed":4421516,"internal_node_id":"0.0-3.0-10.0","trial_duration":5000,"stimulus_duration":5000},{"rt":1337,"stimulus":"<div class=\"bigbox\"><div class=\"picture_box\"><p class=\"block-text\"><div class = centerbox><p class = block-text>Please take a short break.</p></div></p></div></div>","response":" ","trial_id":"test_feedback","exp_stage":"test","trial_duration":4000,"block_num":0,"trial_type":"html-keyboard-response","trial_index":27,"time_elapsed":4422854,"internal_node_id":"0.0-4.0","block_level_feedback":{}},{"rt":7432,"stimulus":"<div><h1>Scanner setup.</h1><h1>Stay as still as possible.</h1><h1>Do not swallow.</h1></div>","response":"enter","trial_id":"fmri_wait_block_initial","trial_type":"html-keyboard-response","trial_index":28,"time_elapsed":4430288,"internal_node_id":"0.0-5.0-0.0"},{"rt":720,"stimulus":"<div><h1>Task about to start!</h1><h1>Stay as still as possible.</h1><h1>Do not swallow.</h1></div>","response":"t","trial_id":"fmri_wait_block_trigger_start","trial_type":"html-keyboard-response","trial_index":29,"time_elapsed":4431010,"internal_node_id":"0.0-5.0-1.0-0.0"},{"rt":null,"stimulus":"<div><h1>Task about to start!</h1><h1>Stay as still as possible.</h1><h1>Do not swallow.</h1></div>","response":null,"trial_id":"fmri_wait_block_trigger_end","block_duration":10430,"trial_type":"html-keyboard-response","trial_index":30,"time_elapsed":4441613,"internal_node_id":"0.0-5.0-1.0-1.0"},{"rt":973,"stimulus":"<div class=\"container\"><div class=\"distractor-box\"></div><div class=\"distractor-box\"></div><div class=\"distractor-box\"></div><div class=\"distractor-box\"></div><div class=\"distractor-box\"></div><div class=\"distractor-box active-box\"></div><div class=\"distractor-box active-box\"></div><div class=\"distractor-box\"></div><div class=\"distractor-box active-box\"></div><div class=\"distractor-box active-box\"></div><div class=\"distractor-box active-box\"></div><div class=\"distractor-box active-box\"></div><div class=\"distractor-box active-box\"></div><div class=\"distractor-box active-box\"></div><div class=\"distractor-box active-box\"></div><div class=\"distractor-box\"></div><div class=\"distractor-box active-box\"></div><div class=\"distractor-box active-box\"></div><div class=\"distractor-box\"></div><div class=\"distractor-box\"></div><div class=\"distractor-box active-box\"></div><div class=\"distractor-box\"></div><div class=\"distractor-box\"></div><div class=\"distractor-box\"></div><div class=\"distractor-box\"></div><div class=\"distractor-box active-box\"></div><div class=\"distractor-box\"></div><div class=\"distractor-box active-box\"></div><div class=\"distractor-box\"></div><div class=\"distractor-box\"></div><div class=\"distractor-box\"></div><div class=\"distractor-box active-box\"></div><div class=\"distractor-box\"></div><div class=\"distractor-box active-box\"></div><div class=\"distractor-box\"></div><div class=\"distractor-box active-box\"></div><div class=\"distractor-box active-box\"></div><div class=\"distractor-box active-box\"></div><div class=\"distractor-box active-box\"></div><div class=\"distractor-box\"></div><div class=\"distractor-box\"></div><div class=\"distractor-box\"></div><div class=\"distractor-box active-box\"></div><div class=\"distractor-box active-box\"></div><div class=\"distractor-box\"></div><div class=\"distractor-box active-box\"></div><div class=\"distractor-box active-box\"></div><div class=\"distractor-box active-box\"></div><div class=\"distractor-box active-box\"></div><div class=\"distractor-box\"></div><div class=\"distractor-box\"></div><div class=\"distractor-box\"></div><div class=\"distractor-box active-box\"></div><div class=\"distractor-box active-box\"></div><div class=\"distractor-box\"></div><div class=\"distractor-box active-box\"></div><div class=\"distractor-box\"></div><div class=\"distractor-box\"></div><div class=\"distractor-box\"></div><div class=\"distractor-box\"></div><div class=\"distractor-box active-box\"></div><div class=\"distractor-box\"></div><div class=\"distractor-box active-box\"></div><div class=\"distractor-box active-box\"></div></div>","response":"b","trial_id":"test_inter-stimulus","exp_stage":"test","condition":"operation","trial_duration":2500,"stimulus_duration":2500,"block_num":0,"choices":["b","y","g","r","e"],"trial_type":"html-keyboard-response","trial_index":31,"time_elapsed":4442588,"internal_node_id":"0.0-6.0-3.0-0.0","order_and_color_of_processing_boxes":["gray","gray","gray","gray","gray","black","black","gray","black","black","black","black","black","black","black","gray","black","black","gray","gray","black","gray","gray","gray","gray","black","gray","black","gray","gray","gray","black","gray","black","gray","black","black","black","black","gray","gray","gray","black","black","gray","black","black","black","black","gray","gray","gray","black","black","gray","black","gray","gray","gray","gray","black","gray","black","black"],"correct_spatial_judgement_key":"b","grid_symmetry":"asymmetric","correct_trial":1},{"rt":528,"stimulus":"<div class=\"container\"><div class=\"distractor-box\"></div><div class=\"distractor-box active-box\"></div><div class=\"distractor-box active-box\"></div><div class=\"distractor-box active-box\"></div><div class=\"distractor-box active-box\"></div><div class=\"distractor-box active-box\"></div><div class=\"distractor-box\"></div><div class=\"distractor-box\"></div><div class=\"distractor-box\"></div><div class=\"distractor-box\"></div><div class=\"distractor-box active-box\"></div><div class=\"distractor-box active-box\"></div><div class=\"distractor-box active-box\"></div><div class=\"distractor-box\"></div><div class=\"distractor-box active-box\"></div><div class=\"distractor-box active-box\"></div><div class=\"distractor-box active-box\"></div><div class=\"distractor-box\"></div><div class=\"distractor-box\"></div><div class=\"distractor-box active-box\"></div><div class=\"distractor-box active-box\"></div><div class=\"distractor-box\"></div><div class=\"distractor-box\"></div><div class=\"distractor-box\"></div><div class=\"distractor-box\"></div><div class=\"distractor-box\"></div><div class=\"distractor-box\"></div><div class=\"distractor-box\"></div><div class=\"distractor-box\"></div><div class=\"distractor-box\"></div><div class=\"distractor-box active-box\"></div><div class=\"distractor-box active-box\"></div><div class=\"distractor-box\"></div><div class=\"distractor-box\"></div><div class=\"distractor-box active-box\"></div><div class=\"distractor-box\"></div><div class=\"distractor-box\"></div><div class=\"distractor-box active-box\"></div><div class=\"distractor-box active-box\"></div><div class=\"distractor-box active-box\"></div><div class=\"distractor-box active-box\"></div><div class=\"distractor-box active-box\"></div><div class=\"distractor-box\"></div><div class=\"distractor-box\"></div><div class=\"distractor-box\"></div><div class=\"distractor-box active-box\"></div><div class=\"distractor-box active-box\"></div><div class=\"distractor-box active-box\"></div><div class=\"distractor-box active-box\"></div><div class=\"distractor-box\"></div><div class=\"distractor-box active-box\"></div><div class=\"distractor-box\"></div><div class=\"distractor-box\"></div><div class=\"distractor-box\"></div><div class=\"distractor-box\"></div><div class=\"distractor-box active-box\"></div><div class=\"distractor-box\"></div><div class=\"distractor-box active-box\"></div><div class=\"distractor-box active-box\"></div><div class=\"distractor-box\"></div><div class=\"distractor-box active-box\"></div><div class=\"distractor-box active-box\"></div><div class=\"distractor-box active-box\"></div><div class=\"distractor-box active-box\"></div></div>","response":"b","trial_id":"test_inter-stimulus","exp_stage":"test","condition":"operation","trial_duration":2500,"stimulus_duration":2500,"block_num":0,"choices":["b","y","g","r","e"],"trial_type":"html-keyboard-response","trial_index":32,"time_elapsed":4443118,"internal_node_id":"0.0-6.0-3.1-0.1","order_and_color_of_processing_boxes":["gray","black","black","black","black","black","gray","gray","gray","gray","black","black","black","gray","black","black","black","gray","gray","black","black","gray","gray","gray","gray","gray","gray","gray","gray","gray","black","black","gray","gray","black","gray","gray","black","black","black","black","black","gray","gray","gray","black","black","black","black","gray","black","gray","gray","gray","gray","black","gray","black","black","gray","black","black","black","black"],"correct_spatial_judgement_key":"b","grid_symmetry":"asymmetric","correct_trial":1},{"rt":519,"stimulus":"<div class=\"container\"><div class=\"distractor-box active-box\"></div><div class=\"distractor-box\"></div><div class=\"distractor-box\"></div><div class=\"distractor-box active-box\"></div><div class=\"distractor-box active-box\"></div><div class=\"distractor-box\"></div><div class=\"distractor-box\"></div><div class=\"distractor-box\"></div><div class=\"distractor-box active-box\"></div><div class=\"distractor-box active-box\"></div><div class=\"distractor-box active-box\"></div><div class=\"distractor-box\"></div><div class=\"distractor-box\"></div><div class=\"distractor-box active-box\"></div><div class=\"distractor-box\"></div><div class=\"distractor-box active-box\"></div><div class=\"distractor-box active-box\"></div><div class=\"distractor-box active-box\"></div><div class=\"distractor-box active-box\"></div><div class=\"distractor-box active-box\"></div><div class=\"distractor-box active-box\"></div><div class=\"distractor-box\"></div><div class=\"distractor-box active-box\"></div><div class=\"distractor-box\"></div><div class=\"distractor-box\"></div><div class=\"distractor-box\"></div><div class=\"distractor-box active-box\"></div><div class=\"distractor-box active-box\"></div><div class=\"distractor-box active-box\"></div><div class=\"distractor-box\"></div><div class=\"distractor-box\"></div><div class=\"distractor-box active-box\"></div><div class=\"distractor-box active-box\"></div><div class=\"distractor-box active-box\"></div><div class=\"distractor-box active-box\"></div><div class=\"distractor-box active-box\"></div><div class=\"distractor-box\"></div><div class=\"distractor-box\"></div><div class=\"distractor-box\"></div><div class=\"distractor-box active-box\"></div><div class=\"distractor-box\"></div><div class=\"distractor-box active-box\"></div><div class=\"distractor-box active-box\"></div><div class=\"distractor-box active-box\"></div><div class=\"distractor-box active-box\"></div><div class=\"distractor-box\"></div><div class=\"distractor-box active-box\"></div><div class=\"distractor-box active-box\"></div><div class=\"distractor-box\"></div><div class=\"distractor-box\"></div><div class=\"distractor-box\"></div><div class=\"distractor-box active-box\"></div><div class=\"distractor-box active-box\"></div><div class=\"distractor-box\"></div><div class=\"distractor-box active-box\"></div><div class=\"distractor-box\"></div><div class=\"distractor-box\"></div><div class=\"distractor-box active-box\"></div><div class=\"distractor-box active-box\"></div><div class=\"distractor-box active-box\"></div><div class=\"distractor-box\"></div><div class=\"distractor-box active-box\"></div><div class=\"distractor-box active-box\"></div><div class=\"distractor-box\"></div></div>","response":"b","trial_id":"test_inter-stimulus","exp_stage":"test","condition":"operation","trial_duration":2500,"stimulus_duration":2500,"block_num":0,"choices":["b","y","g","r","e"],"trial_type":"html-keyboard-response","trial_index":33,"time_elapsed":4443638,"internal_node_id":"0.0-6.0-3.2-0.2","order_and_color_of_processing_boxes":["black","gray","gray","black","black","gray","gray","gray","black","black","black","gray","gray","black","gray","black","black","black","black","black","black","gray","black","gray","gray","gray","black","black","black","gray","gray","black","black","black","black","black","gray","gray","gray","black","gray","black","black","black","black","gray","black","black","gray","gray","gray","black","black","gray","black","gray","gray","black","black","black","gray","black","black","gray"],"correct_spatial_judgement_key":"b","grid_symmetry":"asymmetric","correct_trial":1},{"rt":null,"stimulus":"<div class=\"container\"><div class=\"distractor-box active-box\"></div><div class=\"distractor-box\"></div><div class=\"distractor-box\"></div><div class=\"distractor-box active-box\"></div><div class=\"distractor-box active-box\"></div><div class=\"distractor-box\"></div><div class=\"distractor-box\"></div><div class=\"distractor-box active-box\"></div><div class=\"distractor-box active-box\"></div><div class=\"distractor-box\"></div><div class=\"distractor-box\"></div><div class=\"distractor-box active-box\"></div><div class=\"distractor-box active-box\"></div><div class=\"distractor-box\"></div><div class=\"distractor-box\"></div><div class=\"distractor-box active-box\"></div><div class=\"distractor-box active-box\"></div><div class=\"distractor-box active-box\"></div><div class=\"distractor-box active-box\"></div><div class=\"distractor-box active-box\"></div><div class=\"distractor-box active-box\"></div><div class=\"distractor-box active-box\"></div><div class=\"distractor-box active-box\"></div><div class=\"distractor-box active-box\"></div><div class=\"distractor-box active-box\"></div><div class=\"distractor-box\"></div><div class=\"distractor-box\"></div><div class=\"distractor-box active-box\"></div><div class=\"distractor-box active-box\"></div><div class=\"distractor-box\"></div><div class=\"distractor-box\"></div><div class=\"distractor-box active-box\"></div><div class=\"distractor-box\"></div><div class=\"distractor-box\"></div><div class=\"distractor-box active-box\"></div><div class=\"distractor-box active-box\"></div><div class=\"distractor-box active-box\"></div><div class=\"distractor-box active-box\"></div><div class=\"distractor-box\"></div><div class=\"distractor-box\"></div><div class=\"distractor-box active-box\"></div><div class=\"distractor-box active-box\"></div><div class=\"distractor-box\"></div><div class=\"distractor-box\"></div><div class=\"distractor-box\"></div><div class=\"distractor-box\"></div><div class=\"distractor-box active-box\"></div><div class=\"distractor-box active-box\"></div><div class=\"distractor-box\"></div><div class=\"distractor-box active-box\"></div><div class=\"distractor-box active-box\"></div><div class=\"distractor-box\"></div><div class=\"distractor-box\"></div><div class=\"distractor-box active-box\"></div><div class=\"distractor-box active-box\"></div><div class=\"distractor-box\"></div><div class=\"distractor-box active-box\"></div><div class=\"distractor-box\"></div><div class=\"distractor-box\"></div><div class=\"distractor-box\"></div><div class=\"distractor-box\"></div><div class=\"distractor-box\"></div><div class=\"distractor-box\"></div><div class=\"distractor-box active-box\"></div></div>","response":null,"trial_id":"test_inter-stimulus","exp_stage":"test","condition":"operation","trial_duration":2500,"stimulus_duration":2500,"block_num":0,"choices":["b","y","g","r","e"],"trial_type":"html-keyboard-response","trial_index":34,"time_elapsed":4444121,"internal_node_id":"0.0-6.0-3.3-0.3","order_and_color_of_processing_boxes":["black","gray","gray","black","black","gray","gray","black","black","gray","gray","black","black","gray","gray","black","black","black","black","black","black","black","black","black","black","gray","gray","black","black","gray","gray","black","gray","gray","black","black","black","black","gray","gray","black","black","gray","gray","gray","gray","black","black","gray","black","black","gray","gray","black","black","gray","black","gray","gray","gray","gray","gray","gray","black"],"correct_spatial_judgement_key":"g","grid_symmetry":"symmetric","correct_trial":null},{"rt":99,"stimulus":"<div class=\"container\"><div class=\"box\"></div><div class=\"box\"></div><div class=\"box\"></div><div class=\"box\"></div><div class=\"box\"></div><div class=\"box\"></div><div class=\"box\"></div><div class=\"box active-box\"></div><div class=\"box\"></div><div class=\"box\"></div><div class=\"box\"></div><div class=\"box\"></div><div class=\"box\"></div><div class=\"box\"></div><div class=\"box\"></div><div class=\"box\"></div></div>","response":"g","trial_id":"test_stim","exp_stage":"test","condition":"operation","trial_duration":1000,"stimulus_duration":1000,"block_num":0,"choices":["b","y","g","r","e"],"trial_type":"html-keyboard-response","trial_index":35,"time_elapsed":4445128,"internal_node_id":"0.0-6.0-4.0","spatial_location":7},{"rt":727,"stimulus":"<div class=\"container\"><div class=\"distractor-box active-box\"></div><div class=\"distractor-box active-box\"></div><div class=\"distractor-box\"></div><div class=\"distractor-box\"></div><div class=\"distractor-box\"></div><div class=\"distractor-box\"></div><div class=\"distractor-box active-box\"></div><div class=\"distractor-box active-box\"></div><div class=\"distractor-box\"></div><div class=\"distractor-box\"></div><div class=\"distractor-box active-box\"></div><div class=\"distractor-box active-box\"></div><div class=\"distractor-box\"></div><div class=\"distractor-box active-box\"></div><div class=\"distractor-box active-box\"></div><div class=\"distractor-box\"></div><div class=\"distractor-box active-box\"></div><div class=\"distractor-box\"></div><div class=\"distractor-box\"></div><div class=\"distractor-box\"></div><div class=\"distractor-box active-box\"></div><div class=\"distractor-box\"></div><div class=\"distractor-box active-box\"></div><div class=\"distractor-box active-box\"></div><div class=\"distractor-box active-box\"></div><div class=\"distractor-box active-box\"></div><div class=\"distractor-box active-box\"></div><div class=\"distractor-box active-box\"></div><div class=\"distractor-box\"></div><div class=\"distractor-box\"></div><div class=\"distractor-box\"></div><div class=\"distractor-box\"></div><div class=\"distractor-box active-box\"></div><div class=\"distractor-box active-box\"></div><div class=\"distractor-box active-box\"></div><div class=\"distractor-box\"></div><div class=\"distractor-box\"></div><div class=\"distractor-box active-box\"></div><div class=\"distractor-box active-box\"></div><div class=\"distractor-box\"></div><div class=\"distractor-box\"></div><div class=\"distractor-box\"></div><div class=\"distractor-box\"></div><div class=\"distractor-box\"></div><div class=\"distractor-box\"></div><div class=\"distractor-box active-box\"></div><div class=\"distractor-box active-box\"></div><div class=\"distractor-box\"></div><div class=\"distractor-box active-box\"></div><div class=\"distractor-box active-box\"></div><div class=\"distractor-box\"></div><div class=\"distractor-box active-box\"></div><div class=\"distractor-box\"></div><div class=\"distractor-box\"></div><div class=\"distractor-box active-box\"></div><div class=\"distractor-box active-box\"></div><div class=\"distractor-box\"></div><div class=\"distractor-box\"></div><div class=\"distractor-box active-box\"></div><div class=\"distractor-box active-box\"></div><div class=\"distractor-box active-box\"></div><div class=\"distractor-box\"></div><div class=\"distractor-box active-box\"></div><div class=\"distractor-box active-box\"></div></div>","response":"b","trial_id":"test_inter-stimulus","exp_stage":"test","condition":"operation","trial_duration":2500,"stimulus_duration":2500,"block_num":0,"choices":["b","y","g","r","e"],"trial_type":"html-keyboard-response","trial_index":36,"time_elapsed":4445856,"internal_node_id":"0.0-6.0-5.0-0.0","order_and_color_of_processing_boxes":["black","black","gray","gray","gray","gray","black","black","gray","gray","black","black","gray","black","black","gray","black","gray","gray","gray","black","gray","black","black","black","black","black","black","gray","gray","gray","gray","black","black","black","gray","gray","black","black","gray","gray","gray","gray","gray","gray","black","black","gray","black","black","gray","black","gray","gray","black","black","gray","gray","black","black","black","gray","black","black"],"correct_spatial_judgement_key":"b","grid_symmetry":"asymmetric","correct_trial":1},{"rt":716,"stimulus":"<div class=\"container\"><div class=\"distractor-box\"></div><div class=\"distractor-box active-box\"></div><div class=\"distractor-box active-box\"></div><div class=\"distractor-box active-box\"></div><div class=\"distractor-box active-box\"></div><div class=\"distractor-box active-box\"></div><div class=\"distractor-box active-box\"></div><div class=\"distractor-box\"></div><div class=\"distractor-box\"></div><div class=\"distractor-box active-box\"></div><div class=\"distractor-box active-box\"></div><div class=\"distractor-box active-box\"></div><div class=\"distractor-box active-box\"></div><div class=\"distractor-box active-box\"></div><div class=\"distractor-box active-box\"></div><div class=\"distractor-box\"></div><div class=\"distractor-box active-box\"></div><div class=\"distractor-box active-box\"></div><div class=\"distractor-box active-box\"></div><div class=\"distractor-box\"></div><div class=\"distractor-box\"></div><div class=\"distractor-box active-box\"></div><div class=\"distractor-box active-box\"></div><div class=\"distractor-box active-box\"></div><div class=\"distractor-box\"></div><div class=\"distractor-box active-box\"></div><div class=\"distractor-box\"></div><div class=\"distractor-box\"></div><div class=\"distractor-box\"></div><div class=\"distractor-box\"></div><div class=\"distractor-box active-box\"></div><div class=\"distractor-box\"></div><div class=\"distractor-box\"></div><div class=\"distractor-box\"></div><div class=\"distractor-box\"></div><div class=\"distractor-box active-box\"></div><div class=\"distractor-box active-box\"></div><div class=\"distractor-box\"></div><div class=\"distractor-box\"></div><div class=\"distractor-box\"></div><div class=\"distractor-box\"></div><div class=\"distractor-box\"></div><div class=\"distractor-box\"></div><div class=\"distractor-box\"></div><div class=\"distractor-box\"></div><div class=\"distractor-box\"></div><div class=\"distractor-box\"></div><div class=\"distractor-box\"></div><div class=\"distractor-box\"></div><div class=\"distractor-box\"></div><div class=\"distractor-box active-box\"></div><div class=\"distractor-box active-box\"></div><div class=\"distractor-box active-box\"></div><div class=\"distractor-box active-box\"></div><div class=\"distractor-box\"></div><div class=\"distractor-box\"></div><div class=\"distractor-box active-box\"></div><div class=\"distractor-box\"></div><div class=\"distractor-box active-box\"></div><div class=\"distractor-box active-box\"></div><div class=\"distractor-box active-box\"></div><div class=\"distractor-box active-box\"></div><div class=\"distractor-box\"></div><div class=\"distractor-box active-box\"></div></div>","response":"g","trial_id":"test_inter-stimulus","exp_stage":"test","condition":"operation","trial_duration":2500,"stimulus_duration":2500,"block_num":0,"choices":["b","y","g","r","e"],"trial_type":"html-keyboard-response","trial_index":37,"time_elapsed":4446574,"internal_node_id":"0.0-6.0-5.1-0.1","order_and_color_of_processing_boxes":["gray","black","black","black","black","black","black","gray","gray","black","black","black","black","black","black","gray","black","black","black","gray","gray","black","black","black","gray","black","gray","gray","gray","gray","black","gray","gray","gray","gray","black","black","gray","gray","gray","gray","gray","gray","gray","gray","gray","gray","gray","gray","gray","black","black","black","black","gray","gray","black","gray","black","black","black","black","gray","black"],"correct_spatial_judgement_key":"g","grid_symmetry":"symmetric","correct_trial":1},{"rt":604,"stimulus":"<div class=\"container\"><div class=\"distractor-box\"></div><div class=\"distractor-box active-box\"></div><div class=\"distractor-box\"></div><div class=\"distractor-box\"></div><div class=\"distractor-box\"></div><div class=\"distractor-box\"></div><div class=\"distractor-box active-box\"></div><div class=\"distractor-box\"></div><div class=\"distractor-box\"></div><div class=\"distractor-box active-box\"></div><div class=\"distractor-box\"></div><div class=\"distractor-box\"></div><div class=\"distractor-box\"></div><div class=\"distractor-box\"></div><div class=\"distractor-box active-box\"></div><div class=\"distractor-box\"></div><div class=\"distractor-box\"></div><div class=\"distractor-box active-box\"></div><div class=\"distractor-box active-box\"></div><div class=\"distractor-box\"></div><div class=\"distractor-box\"></div><div class=\"distractor-box active-box\"></div><div class=\"distractor-box active-box\"></div><div class=\"distractor-box\"></div><div class=\"distractor-box\"></div><div class=\"distractor-box\"></div><div class=\"distractor-box active-box\"></div><div class=\"distractor-box\"></div><div class=\"distractor-box\"></div><div class=\"distractor-box active-box\"></div><div class=\"distractor-box\"></div><div class=\"distractor-box\"></div><div class=\"distractor-box\"></div><div class=\"distractor-box\"></div><div class=\"distractor-box active-box\"></div><div class=\"distractor-box\"></div><div class=\"distractor-box\"></div><div class=\"distractor-box active-box\"></div><div class=\"distractor-box\"></div><div class=\"distractor-box\"></div><div class=\"distractor-box\"></div><div class=\"distractor-box active-box\"></div><div class=\"distractor-box active-box\"></div><div class=\"distractor-box\"></div><div class=\"distractor-box\"></div><div class=\"distractor-box active-box\"></div><div class=\"distractor-box active-box\"></div><div class=\"distractor-box\"></div><div class=\"distractor-box active-box\"></div><div class=\"distractor-box\"></div><div class=\"distractor-box active-box\"></div><div class=\"distractor-box\"></div><div class=\"distractor-box\"></div><div class=\"distractor-box active-box\"></div><div class=\"distractor-box\"></div><div class=\"distractor-box active-box\"></div><div class=\"distractor-box active-box\"></div><div class=\"distractor-box\"></div><div class=\"distractor-box\"></div><div class=\"distractor-box\"></div><div class=\"distractor-box\"></div><div class=\"distractor-box\"></div><div class=\"distractor-box\"></div><div class=\"distractor-box active-box\"></div></div>","response":"g","trial_id":"test_inter-stimulus","exp_stage":"test","condition":"operation","trial_duration":2500,"stimulus_duration":2500,"block_num":0,"choices":["b","y","g","r","e"],"trial_type":"html-keyboard-response","trial_index":38,"time_elapsed":4447180,"internal_node_id":"0.0-6.0-5.2-0.2","order_and_color_of_processing_boxes":["gray","black","gray","gray","gray","gray","black","gray","gray","black","gray","gray","gray","gray","black","gray","gray","black","black","gray","gray","black","black","gray","gray","gray","black","gray","gray","black","gray","gray","gray","gray","black","gray","gray","black","gray","gray","gray","black","black","gray","gray","black","black","gray","black","gray","black","gray","gray","black","gray","black","black","gray","gray","gray","gray","gray","gray","black"],"correct_spatial_judgement_key":"g","grid_symmetry":"symmetric","correct_trial":1},{"rt":null,"stimulus":"<div class=\"container\"><div class=\"distractor-box\"></div><div class=\"distractor-box\"></div><div class=\"distractor-box\"></div><div class=\"distractor-box active-box\"></div><div class=\"distractor-box active-box\"></div><div class=\"distractor-box\"></div><div class=\"distractor-box\"></div><div class=\"distractor-box\"></div><div class=\"distractor-box active-box\"></div><div class=\"distractor-box active-box\"></div><div class=\"distractor-box active-box\"></div><div class=\"distractor-box\"></div><div class=\"distractor-box\"></div><div class=\"distractor-box active-box\"></div><div class=\"distractor-box active-box\"></div><div class=\"distractor-box active-box\"></div><div class=\"distractor-box\"></div><div class=\"distractor-box\"></div><div class=\"distractor-box\"></div><div class=\"distractor-box active-box\"></div><div class=\"distractor-box active-box\"></div><div class=\"distractor-box\"></div><div class=\"distractor-box\"></div><div class=\"distractor-box\"></div><div class=\"distractor-box active-box\"></div><div class=\"distractor-box\"></div><div class=\"distractor-box active-box\"></div><div class=\"distractor-box\"></div><div class=\"distractor-box\"></div><div class=\"distractor-box active-box\"></div><div class=\"distractor-box\"></div><div class=\"distractor-box active-box\"></div><div class=\"distractor-box\"></div><div class=\"distractor-box\"></div><div class=\"distractor-box\"></div><div class=\"distractor-box active-box\"></div><div class=\"distractor-box active-box\"></div><div class=\"distractor-box\"></div><div class=\"distractor-box\"></div><div class=\"distractor-box\"></div><div class=\"distractor-box active-box\"></div><div class=\"distractor-box active-box\"></div><div class=\"distractor-box active-box\"></div><div class=\"distractor-box active-box\"></div><div class=\"distractor-box active-box\"></div><div class=\"distractor-box active-box\"></div><div class=\"distractor-box active-box\"></div><div class=\"distractor-box active-box\"></div><div class=\"distractor-box\"></div><div class=\"distractor-box\"></div><div class=\"distractor-box active-box\"></div><div class=\"distractor-box active-box\"></div><div class=\"distractor-box active-box\"></div><div class=\"distractor-box active-box\"></div><div class=\"distractor-box\"></div><div class=\"distractor-box\"></div><div class=\"distractor-box\"></div><div class=\"distractor-box\"></div><div class=\"distractor-box active-box\"></div><div class=\"distractor-box\"></div><div class=\"distractor-box\"></div><div class=\"distractor-box active-box\"></div><div class=\"distractor-box\"></div><div class=\"distractor-box\"></div></div>","response":null,"trial_id":"test_inter-stimulus","exp_stage":"test","condition":"operation","trial_duration":2500,"stimulus_duration":2500,"block_num":0,"choices":["b","y","g","r","e"],"trial_type":"html-keyboard-response","trial_index":39,"time_elapsed":4447633,"internal_node_id":"0.0-6.0-5.3-0.3","order_and_color_of_processing_boxes":["gray","gray","gray","black","black","gray","gray","gray","black","black","black","gray","gray","black","black","black","gray","gray","gray","black","black","gray","gray","gray","black","gray","black","gray","gray","black","gray","black","gray","gray","gray","black","black","gray","gray","gray","black","black","black","black","black","black","black","black","gray","gray","black","black","black","black","gray","gray","gray","gray","black","gray","gray","black","gray","gray"],"correct_spatial_judgement_key":"g","grid_symmetry":"symmetric","correct_trial":null},{"rt":null,"stimulus":"<div class=\"container\"><div class=\"box\"></div><div class=\"box\"></div><div class=\"box\"></div><div class=\"box\"></div><div class=\"box\"></div><div class=\"box\"></div><div class=\"box\"></div><div class=\"box\"></div><div class=\"box\"></div><div class=\"box\"></div><div class=\"box\"></div><div class=\"box\"></div><div class=\"box\"></div><div class=\"box\"></div><div class=\"box active-box\"></div><div class=\"box\"></div></div>","response":null,"trial_id":"test_stim","exp_stage":"test","condition":"operation","trial_duration":1000,"stimulus_duration":1000,"block_num":0,"choices":["b","y","g","r","e"],"trial_type":"html-keyboard-response","trial_index":40,"time_elapsed":4448640,"internal_node_id":"0.0-6.0-6.0","spatial_location":14},{"rt":841,"stimulus":"<div class=\"container\"><div class=\"distractor-box active-box\"></div><div class=\"distractor-box active-box\"></div><div class=\"distractor-box active-box\"></div><div class=\"distractor-box\"></div><div class=\"distractor-box\"></div><div class=\"distractor-box active-box\"></div><div class=\"distractor-box active-box\"></div><div class=\"distractor-box active-box\"></div><div class=\"distractor-box active-box\"></div><div class=\"distractor-box\"></div><div class=\"distractor-box active-box\"></div><div class=\"distractor-box\"></div><div class=\"distractor-box\"></div><div class=\"distractor-box active-box\"></div><div class=\"distractor-box\"></div><div class=\"distractor-box active-box\"></div><div class=\"distractor-box active-box\"></div><div class=\"distractor-box active-box\"></div><div class=\"distractor-box\"></div><div class=\"distractor-box active-box\"></div><div class=\"distractor-box active-box\"></div><div class=\"distractor-box\"></div><div class=\"distractor-box active-box\"></div><div class=\"distractor-box active-box\"></div><div class=\"distractor-box\"></div><div class=\"distractor-box\"></div><div class=\"distractor-box\"></div><div class=\"distractor-box\"></div><div class=\"distractor-box\"></div><div class=\"distractor-box\"></div><div class=\"distractor-box\"></div><div class=\"distractor-box\"></div><div class=\"distractor-box active-box\"></div><div class=\"distractor-box\"></div><div class=\"distractor-box active-box\"></div><div class=\"distractor-box active-box\"></div><div class=\"distractor-box active-box\"></div><div class=\"distractor-box active-box\"></div><div class=\"distractor-box\"></div><div class=\"distractor-box active-box\"></div><div class=\"distractor-box\"></div><div class=\"distractor-box\"></div><div class=\"distractor-box active-box\"></div><div class=\"distractor-box active-box\"></div><div class=\"distractor-box active-box\"></div><div class=\"distractor-box active-box\"></div><div class=\"distractor-box\"></div><div class=\"distractor-box\"></div><div class=\"distractor-box active-box\"></div><div class=\"distractor-box\"></div><div class=\"distractor-box active-box\"></div><div class=\"distractor-box\"></div><div class=\"distractor-box\"></div><div class=\"distractor-box active-box\"></div><div class=\"distractor-box\"></div><div class=\"distractor-box active-box\"></div><div class=\"distractor-box active-box\"></div><div class=\"distractor-box\"></div><div class=\"distractor-box active-box\"></div><div class=\"distractor-box active-box\"></div><div class=\"distractor-box active-box\"></div><div class=\"distractor-box active-box\"></div><div class=\"distractor-box\"></div><div class=\"distractor-box active-box\"></div></div>","response":"g","trial_id":"test_inter-stimulus","exp_stage":"test","condition":"operation","trial_duration":2500,"stimulus_duration":2500,"block_num":0,"choices":["b","y","g","r","e"],"trial_type":"html-keyboard-response","trial_index":41,"time_elapsed":4449482,"internal_node_id":"0.0-6.0-7.0-0.0","order_and_color_of_processing_boxes":["black","black","black","gray","gray","black","black","black","black","gray","black","gray","gray","black","gray","black","black","black","gray","black","black","gray","black","black","gray","gray","gray","gray","gray","gray","gray","gray","black","gray","black","black","black","black","gray","black","gray","gray","black","black","black","black","gray","gray","black","gray","black","gray","gray","black","gray","black","black","gray","black","black","black","black","gray","black"],"correct_spatial_judgement_key":"g","grid_symmetry":"symmetric","correct_trial":1},{"rt":690,"stimulus":"<div class=\"container\"><div class=\"distractor-box active-box\"></div><div class=\"distractor-box active-box\"></div><div class=\"distractor-box active-box\"></div><div class=\"distractor-box active-box\"></div><div class=\"distractor-box\"></div><div class=\"distractor-box active-box\"></div><div class=\"distractor-box active-box\"></div><div class=\"distractor-box active-box\"></div><div class=\"distractor-box\"></div><div class=\"distractor-box\"></div><div class=\"distractor-box active-box\"></div><div class=\"distractor-box active-box\"></div><div class=\"distractor-box active-box\"></div><div class=\"distractor-box active-box\"></div><div class=\"distractor-box\"></div><div class=\"distractor-box active-box\"></div><div class=\"distractor-box active-box\"></div><div class=\"distractor-box active-box\"></div><div class=\"distractor-box active-box\"></div><div class=\"distractor-box\"></div><div class=\"distractor-box active-box\"></div><div class=\"distractor-box\"></div><div class=\"distractor-box active-box\"></div><div class=\"distractor-box\"></div><div class=\"distractor-box\"></div><div class=\"distractor-box\"></div><div class=\"distractor-box active-box\"></div><div class=\"distractor-box\"></div><div class=\"distractor-box\"></div><div class=\"distractor-box active-box\"></div><div class=\"distractor-box\"></div><div class=\"distractor-box\"></div><div class=\"distractor-box\"></div><div class=\"distractor-box active-box\"></div><div class=\"distractor-box\"></div><div class=\"distractor-box active-box\"></div><div class=\"distractor-box\"></div><div class=\"distractor-box active-box\"></div><div class=\"distractor-box active-box\"></div><div class=\"distractor-box active-box\"></div><div class=\"distractor-box\"></div><div class=\"distractor-box active-box\"></div><div class=\"distractor-box active-box\"></div><div class=\"distractor-box\"></div><div class=\"distractor-box\"></div><div class=\"distractor-box active-box\"></div><div class=\"distractor-box active-box\"></div><div class=\"distractor-box\"></div><div class=\"distractor-box active-box\"></div><div class=\"distractor-box active-box\"></div><div class=\"distractor-box\"></div><div class=\"distractor-box\"></div><div class=\"distractor-box\"></div><div class=\"distractor-box\"></div><div class=\"distractor-box\"></div><div class=\"distractor-box\"></div><div class=\"distractor-box\"></div><div class=\"distractor-box\"></div><div class=\"distractor-box\"></div><div class=\"distractor-box active-box\"></div><div class=\"distractor-box active-box\"></div><div class=\"distractor-box\"></div><div class=\"distractor-box\"></div><div class=\"distractor-box active-box\"></div></div>","response":"b","trial_id":"test_inter-stimulus","exp_stage":"test","condition":"operation","trial_duration":2500,"stimulus_duration":2500,"block_num":0,"choices":["b","y","g","r","e"],"trial_type":"html-keyboard-response","trial_index":42,"time_elapsed":4450174,"internal_node_id":"0.0-6.0-7.1-0.1","order_and_color_of_processing_boxes":["black","black","black","black","gray","black","black","black","gray","gray","black","black","black","black","gray","black","black","black","black","gray","black","gray","black","gray","gray","gray","black","gray","gray","black","gray","gray","gray","black","gray","black","gray","black","black","black","gray","black","black","gray","gray","black","black","gray","black","black","gray","gray","gray","gray","gray","gray","gray","gray","gray","black","black","gray","gray","black"],"correct_spatial_judgement_key":"b","grid_symmetry":"asymmetric","correct_trial":1},{"rt":742,"stimulus":"<div class=\"container\"><div class=\"distractor-box\"></div><div class=\"distractor-box active-box\"></div><div class=\"distractor-box\"></div><div class=\"distractor-box active-box\"></div><div class=\"distractor-box active-box\"></div><div class=\"distractor-box active-box\"></div><div class=\"distractor-box active-box\"></div><div class=\"distractor-box active-box\"></div><div class=\"distractor-box active-box\"></div><div class=\"distractor-box\"></div><div class=\"distractor-box\"></div><div class=\"distractor-box active-box\"></div><div class=\"distractor-box active-box\"></div><div class=\"distractor-box active-box\"></div><div class=\"distractor-box\"></div><div class=\"distractor-box active-box\"></div><div class=\"distractor-box\"></div><div class=\"distractor-box\"></div><div class=\"distractor-box\"></div><div class=\"distractor-box active-box\"></div><div class=\"distractor-box active-box\"></div><div class=\"distractor-box active-box\"></div><div class=\"distractor-box\"></div><div class=\"distractor-box\"></div><div class=\"distractor-box\"></div><div class=\"distractor-box\"></div><div class=\"distractor-box\"></div><div class=\"distractor-box active-box\"></div><div class=\"distractor-box\"></div><div class=\"distractor-box active-box\"></div><div class=\"distractor-box\"></div><div class=\"distractor-box active-box\"></div><div class=\"distractor-box\"></div><div class=\"distractor-box\"></div><div class=\"distractor-box\"></div><div class=\"distractor-box active-box\"></div><div class=\"distractor-box active-box\"></div><div class=\"distractor-box active-box\"></div><div class=\"distractor-box\"></div><div class=\"distractor-box active-box\"></div><div class=\"distractor-box\"></div><div class=\"distractor-box active-box\"></div><div class=\"distractor-box\"></div><div class=\"distractor-box\"></div><div class=\"distractor-box\"></div><div class=\"distractor-box\"></div><div class=\"distractor-box\"></div><div class=\"distractor-box\"></div><div class=\"distractor-box active-box\"></div><div class=\"distractor-box active-box\"></div><div class=\"distractor-box\"></div><div class=\"distractor-box active-box\"></div><div class=\"distractor-box\"></div><div class=\"distractor-box\"></div><div class=\"distractor-box\"></div><div class=\"distractor-box active-box\"></div><div class=\"distractor-box active-box\"></div><div class=\"distractor-box active-box\"></div><div class=\"distractor-box\"></div><div class=\"distractor-box active-box\"></div><div class=\"distractor-box\"></div><div class=\"distractor-box\"></div><div class=\"distractor-box\"></div><div class=\"distractor-box\"></div></div>","response":"b","trial_id":"test_inter-stimulus","exp_stage":"test","condition":"operation","trial_duration":2500,"stimulus_duration":2500,"block_num":0,"choices":["b","y","g","r","e"],"trial_type":"html-keyboard-response","trial_index":43,"time_elapsed":4450917,"internal_node_id":"0.0-6.0-7.2-0.2","order_and_color_of_processing_boxes":["gray","black","gray","black","black","black","black","black","black","gray","gray","black","black","black","gray","black","gray","gray","gray","black","black","black","gray","gray","gray","gray","gray","black","gray","black","gray","black","gray","gray","gray","black","black","black","gray","black","gray","black","gray","gray","gray","gray","gray","gray","black","black","gray","black","gray","gray","gray","black","black","black","gray","black","gray","gray","gray","gray"],"correct_spatial_judgement_key":"b","grid_symmetry":"asymmetric","correct_trial":1},{"rt":null,"stimulus":"<div class=\"container\"><div class=\"distractor-box\"></div><div class=\"distractor-box active-box\"></div><div class=\"distractor-box\"></div><div class=\"distractor-box active-box\"></div><div class=\"distractor-box active-box\"></div><div class=\"distractor-box\"></div><div class=\"distractor-box active-box\"></div><div class=\"distractor-box\"></div><div class=\"distractor-box\"></div><div class=\"distractor-box\"></div><div class=\"distractor-box\"></div><div class=\"distractor-box\"></div><div class=\"distractor-box\"></div><div class=\"distractor-box\"></div><div class=\"distractor-box\"></div><div class=\"distractor-box\"></div><div class=\"distractor-box\"></div><div class=\"distractor-box active-box\"></div><div class=\"distractor-box\"></div><div class=\"distractor-box active-box\"></div><div class=\"distractor-box active-box\"></div><div class=\"distractor-box\"></div><div class=\"distractor-box active-box\"></div><div class=\"distractor-box\"></div><div class=\"distractor-box\"></div><div class=\"distractor-box\"></div><div class=\"distractor-box active-box\"></div><div class=\"distractor-box\"></div><div class=\"distractor-box\"></div><div class=\"distractor-box active-box\"></div><div class=\"distractor-box\"></div><div class=\"distractor-box\"></div><div class=\"distractor-box\"></div><div class=\"distractor-box\"></div><div class=\"distractor-box active-box\"></div><div class=\"distractor-box\"></div><div class=\"distractor-box\"></div><div class=\"distractor-box active-box\"></div><div class=\"distractor-box\"></div><div class=\"distractor-box\"></div><div class=\"distractor-box\"></div><div class=\"distractor-box\"></div><div class=\"distractor-box active-box\"></div><div class=\"distractor-box active-box\"></div><div class=\"distractor-box active-box\"></div><div class=\"distractor-box active-box\"></div><div class=\"distractor-box\"></div><div class=\"distractor-box\"></div><div class=\"distractor-box active-box\"></div><div class=\"distractor-box\"></div><div class=\"distractor-box active-box\"></div><div class=\"distractor-box active-box\"></div><div class=\"distractor-box active-b