[{"rt":2503807,"response":{"P0_Q0":null,"motor_perm":1,"design_perm":3},"accuracy":[],"trial_type":"survey","trial_index":0,"time_elapsed":2503806,"internal_node_id":"0.0-0.0","motor_perm":1,"design_perm":3},{"success":true,"trial_type":"fullscreen","trial_index":1,"time_elapsed":2505990,"internal_node_id":"0.0-1.0"},{"rt":1300,"stimulus":"<div><h1>Please press your index finger.</h1></div>","response":"y","trial_id":"check_index","trial_type":"html-keyboard-response","trial_index":2,"time_elapsed":2507294,"internal_node_id":"0.0-2.0-0.0"},{"rt":602,"stimulus":"<div><h1>Please press your middle finger.</h1></div>","response":"g","trial_id":"check_middle","trial_type":"html-keyboard-response","trial_index":3,"time_elapsed":2508399,"internal_node_id":"0.0-2.0-1.0"},{"rt":14878,"stimulus":"<div class = bigbox><div class = picture_box><p class = block-text>\n    \n  <div class=\"centerbox\">\n    <p class=\"block-text\">On each trial you will see shapes appear on the screen one at a time.</p>\n    <p class=\"block-text\">If the shape is a <b>square</b>, press your <b>index finger</b>.</p>\n    <p class=\"block-text\">If the shape is a <b>circle</b>, press your <b>middle finger</b>.</p>\n    <p class=\"block-text\">On some trials, a star will appear around the shape, with or shortly after the shape appears.</p>\n    <p class=\"block-text\">If you see the star, please try your best to <b>withhold your response</b> on that trial.</p>\n  </div>\n    </font></p></div></div>","response":" ","trial_id":"practice_feedback","exp_stage":"practice","trial_duration":4000,"block_num":0,"trial_type":"html-keyboard-response","trial_index":4,"time_elapsed":2523779,"internal_node_id":"0.0-3.0-0.0","block_level_feedback":{}},{"rt":null,"stimulus":"<div class = centerbox><div class = fixation>+</div></div>","response":null,"trial_id":"practice_ITI","ITIParams":0.5,"block_num":0,"exp_stage":"practice","choices":["b","y","g","r","e"],"trial_type":"html-keyboard-response","trial_index":5,"time_elapsed":2524285,"internal_node_id":"0.0-3.0-1.0","trial_duration":500,"stimulus_duration":500},{"rt":638,"response":"g","trial_id":"practice_trial","exp_stage":"practice","trial_duration":1500,"stimulus_duration":1000,"trial_type":"poldracklab-stop-signal","trial_index":6,"time_elapsed":2525788,"internal_node_id":"0.0-3.0-2.0","response_ends_trial":false,"stimulus":"<div class = centerbox><div class = cue-text><img class = center src='/static/experiments/stop_signal_rdoc__fmri/images/circle.png'></img></div></div>","SS_stimulus":"<img class = center src='/static/experiments/stop_signal_rdoc__fmri/images/stopSignal.png'></img>","SS_trial_type":"go","SS_duration":500,"SSD":250,"choices":["b","y","g","r","e"],"stim":"circle","correct_response":"g","current_trial":1,"condition":"go","block_num":0,"correct_trial":1},{"rt":null,"stimulus":"<div class=center-box><div class=center-text><font size = 20>Correct!</font></div></div>\n    <div class=\"prompt_box\">\n      <p class=\"center-block-text\" style=\"font-size:16px; line-height:80%;\">Square: Index</p>\n      <p class=\"center-block-text\" style=\"font-size:16px; line-height:80%;\">Circle: Middle</p>\n      <p class=\"center-block-text\" style=\"font-size:16px; line-height:80%;\">Star: Do not respond</p>\n    </div>\n  ","response":null,"exp_stage":"practice","trial_id":"practice_feedback","trial_duration":500,"stimulus_duration":500,"block_num":0,"choices":["b","y","g","r","e"],"trial_type":"html-keyboard-response","trial_index":7,"time_elapsed":2526294,"internal_node_id":"0.0-3.0-3.0"},{"rt":9479,"stimulus":"<div class = bigbox><div class = picture_box><p class = block-text>\n    <div class=\"centerbox\"><p class = block-text>Please take a short break.</p></div>\n    </font></p></div></div>","response":" ","trial_id":"test_feedback","exp_stage":"test","trial_duration":4000,"block_num":0,"trial_type":"html-keyboard-response","trial_index":8,"time_elapsed":2535774,"internal_node_id":"0.0-4.0","block_level_feedback":{}},{"rt":6509,"stimulus":"<div><h1>Scanner setup.</h1><h1>Stay as still as possible.</h1><h1>Do not swallow.</h1></div>","response":"enter","trial_id":"fmri_wait_block_initial","trial_type":"html-keyboard-response","trial_index":9,"time_elapsed":2542284,"internal_node_id":"0.0-5.0-0.0"},{"rt":954,"stimulus":"<div><h1>Task about to start!</h1><h1>Stay as still as possible.</h1><h1>Do not swallow.</h1></div>","response":"t","trial_id":"fmri_wait_block_trigger_start","trial_type":"html-keyboard-response","trial_index":10,"time_elapsed":2543239,"internal_node_id":"0.0-5.0-1.0-0.0"},{"rt":null,"stimulus":"<div><h1>Task about to start!</h1><h1>Stay as still as possible.</h1><h1>Do not swallow.</h1></div>","response":null,"trial_id":"fmri_wait_block_trigger_end","block_duration":10430,"trial_type":"html-keyboard-response","trial_index":11,"time_elapsed":2554462,"internal_node_id":"0.0-5.0-1.0-1.0"},{"rt":null,"stimulus":"<div class = centerbox><div class = fixation>+</div></div>","response":null,"trial_id":"test_ITI","ITIParams":null,"block_num":0,"exp_stage":"test","choices":["b","y","g","r","e"],"trial_type":"html-keyboard-response","trial_index":12,"time_elapsed":2555868,"internal_node_id":"0.0-6.0-3.0","trial_duration":1402.9235837524873,"stimulus_duration":1402.9235837524873},{"rt":511,"response":"y","trial_id":"test_trial","exp_stage":"test","trial_duration":1500,"stimulus_duration":1000,"choices":["b","y","g","r","e"],"trial_type":"poldracklab-stop-signal","trial_index":13,"time_elapsed":2557370,"internal_node_id":"0.0-6.0-4.0","response_ends_trial":false,"stimulus":"<div class = centerbox><div class = cue-text><img class = center src='/static/experiments/stop_signal_rdoc__fmri/images/circle.png'></img></div></div>","SS_stimulus":"<img class = center src='/static/experiments/stop_signal_rdoc__fmri/images/stopSignal.png'></img>","SS_trial_type":"go","SS_duration":500,"SSD":250,"stim":"circle","correct_response":"g","current_trial":1,"condition":"go","block_num":0,"correct_trial":0},{"rt":null,"stimulus":"<div class = centerbox><div class = fixation>+</div></div>","response":null,"trial_id":"test_ITI","ITIParams":null,"block_num":0,"exp_stage":"test","choices":["b","y","g","r","e"],"trial_type":"html-keyboard-response","trial_index":14,"time_elapsed":2557949,"internal_node_id":"0.0-6.0-5.0","trial_duration":576.697756992965,"stimulus_duration":576.697756992965},{"rt":null,"response":null,"trial_id":"test_trial","exp_stage":"test","trial_duration":1500,"stimulus_duration":1000,"choices":["b","y","g","r","e"],"trial_type":"poldracklab-stop-signal","trial_index":15,"time_elapsed":2559454,"internal_node_id":"0.0-6.0-6.0","response_ends_trial":false,"stimulus":"<div class = centerbox><div class = cue-text><img class = center src='/static/experiments/stop_signal_rdoc__fmri/images/square.png'></img></div></div>","SS_stimulus":"<img class = center src='/static/experiments/stop_signal_rdoc__fmri/images/stopSignal.png'></img>","SS_trial_type":"stop","SS_duration":500,"SSD":250,"stim":"square","correct_response":"y","current_trial":2,"condition":"stop","block_num":0,"correct_trial":1},{"rt":null,"stimulus":"<div class = centerbox><div class = fixation>+</div></div>","response":null,"trial_id":"test_ITI","ITIParams":null,"block_num":0,"exp_stage":"test","choices":["b","y","g","r","e"],"trial_type":"html-keyboard-response","trial_index":16,"time_elapsed":2560492,"internal_node_id":"0.0-6.0-7.0","trial_duration":1011.1584609361586,"stimulus_duration":1011.1584609361586},{"rt":463,"response":"y","trial_id":"test_trial","exp_stage":"test","trial_duration":1500,"stimulus_duration":1000,"choices":["b","y","g","r","e"],"trial_type":"poldracklab-stop-signal","trial_index":17,"time_elapsed":2561998,"internal_node_id":"0.0-6.0-8.0","response_ends_trial":false,"stimulus":"<div class = centerbox><div class = cue-text><img class = center src='/static/experiments/stop_signal_rdoc__fmri/images/circle.png'></img></div></div>","SS_stimulus":"<img class = center src='/static/experiments/stop_signal_rdoc__fmri/images/stopSignal.png'></img>","SS_trial_type":"stop","SS_duration":500,"SSD":300,"stim":"circle","correct_response":"g","current_trial":3,"condition":"stop","block_num":0,"correct_trial":0},{"rt":null,"stimulus":"<div class = centerbox><div class = fixation>+</div></div>","response":null,"trial_id":"test_ITI","ITIParams":null,"block_num":0,"exp_stage":"test","choices":["b","y","g","r","e"],"trial_type":"html-keyboard-response","trial_index":18,"time_elapsed":2562645,"internal_node_id":"0.0-6.0-9.0","trial_duration":640.4005110704834,"stimulus_duration":640.4005110704834},{"rt":741,"response":"y","trial_id":"test_trial","exp_stage":"test","trial_duration":1500,"stimulus_duration":1000,"choices":["b","y","g","r","e"],"trial_type":"poldracklab-stop-signal","trial_index":19,"time_elapsed":2564151,"internal_node_id":"0.0-6.0-10.0","response_ends_trial":false,"stimulus":"<div class = centerbox><div class = cue-text><img class = center src='/static/experiments/stop_signal_rdoc__fmri/images/circle.png'></img></div></div>","SS_stimulus":"<img class = center src='/static/experiments/stop_signal_rdoc__fmri/images/stopSignal.png'></img>","SS_trial_type":"go","SS_duration":500,"SSD":250,"stim":"circle","correct_response":"g","current_trial":4,"condition":"go","block_num":0,"correct_trial":0},{"rt":null,"stimulus":"<div class = centerbox><div class = fixation>+</div></div>","response":null,"trial_id":"test_ITI","ITIParams":null,"block_num":0,"exp_stage":"test","choices":["b","y","g","r","e"],"trial_type":"html-keyboard-response","trial_index":20,"time_elapsed":2564824,"internal_node_id":"0.0-6.0-11.0","trial_duration":667.1971765731506,"stimulus_duration":667.1971765731506},{"rt":null,"response":null,"trial_id":"test_trial","exp_stage":"test","trial_duration":1500,"stimulus_duration":1000,"choices":["b","y","g","r","e"],"trial_type":"poldracklab-stop-signal","trial_index":21,"time_elapsed":2566328,"internal_node_id":"0.0-6.0-12.0","response_ends_trial":false,"stimulus":"<div class = centerbox><div class = cue-text><img class = center src='/static/experiments/stop_signal_rdoc__fmri/images/circle.png'></img></div></div>","SS_stimulus":"<img class = center src='/static/experiments/stop_signal_rdoc__fmri/images/stopSignal.png'></img>","SS_trial_type":"stop","SS_duration":500,"SSD":250,"stim":"circle","correct_response":"g","current_trial":5,"condition":"stop","block_num":0,"correct_trial":1},{"rt":null,"stimulus":"<div class = centerbox><div class = fixation>+</div></div>","response":null,"trial_id":"test_ITI","ITIParams":null,"block_num":0,"exp_stage":"test","choices":["b","y","g","r","e"],"trial_type":"html-keyboard-response","trial_index":22,"time_elapsed":2567834,"internal_node_id":"0.0-6.0-13.0","trial_duration":1504.4170844092282,"stimulus_duration":1504.4170844092282},{"rt":481,"response":"y","trial_id":"test_trial","exp_stage":"test","trial_duration":1500,"stimulus_duration":1000,"choices":["b","y","g","r","e"],"trial_type":"poldracklab-stop-signal","trial_index":23,"time_elapsed":2569338,"internal_node_id":"0.0-6.0-14.0","response_ends_trial":false,"stimulus":"<div class = centerbox><div class = cue-text><img class = center src='/static/experiments/stop_signal_rdoc__fmri/images/circle.png'></img></div></div>","SS_stimulus":"<img class = center src='/static/experiments/stop_signal_rdoc__fmri/images/stopSignal.png'></img>","SS_trial_type":"stop","SS_duration":500,"SSD":300,"stim":"circle","correct_response":"g","current_trial":6,"condition":"stop","block_num":0,"correct_trial":0},{"rt":null,"stimulus":"<div class = centerbox><div class = fixation>+</div></div>","response":null,"trial_id":"test_ITI","ITIParams":null,"block_num":0,"exp_stage":"test","choices":["b","y","g","r","e"],"trial_type":"html-keyboard-response","trial_index":24,"time_elapsed":2570214,"internal_node_id":"0.0-6.0-15.0","trial_duration":874.195188768267,"stimulus_duration":874.195188768267},{"rt":655,"response":"y","trial_id":"test_trial","exp_stage":"test","trial_duration":1500,"stimulus_duration":1000,"choices":["b","y","g","r","e"],"trial_type":"poldracklab-stop-signal","trial_index":25,"time_elapsed":2571719,"internal_node_id":"0.0-6.0-16.0","response_ends_trial":false,"stimulus":"<div class = centerbox><div class = cue-text><img class = center src='/static/experiments/stop_signal_rdoc__fmri/images/circle.png'></img></div></div>","SS_stimulus":"<img class = center src='/static/experiments/stop_signal_rdoc__fmri/images/stopSignal.png'></img>","SS_trial_type":"go","SS_duration":500,"SSD":250,"stim":"circle","correct_response":"g","current_trial":7,"condition":"go","block_num":0,"correct_trial":0},{"rt":null,"stimulus":"<div class = centerbox><div class = fixation>+</div></div>","response":null,"trial_id":"test_ITI","ITIParams":null,"block_num":0,"exp_stage":"test","choices":["b","y","g","r","e"],"trial_type":"html-keyboard-response","trial_index":26,"time_elapsed":2572290,"internal_node_id":"0.0-6.0-17.0","trial_duration":567.1126713230378,"stimulus_duration":567.1126713230378},{"rt":719,"response":"y","trial_id":"test_trial","exp_stage":"test","trial_duration":1500,"stimulus_duration":1000,"choices":["b","y","g","r","e"],"trial_type":"poldracklab-stop-signal","trial_index":27,"time_elapsed":2573796,"internal_node_id":"0.0-6.0-18.0","response_ends_trial":false,"stimulus":"<div class = centerbox><div class = cue-text><img class = center src='/static/experiments/stop_signal_rdoc__fmri/images/circle.png'></img></div></div>","SS_stimulus":"<img class = center src='/static/experiments/stop_signal_rdoc__fmri/images/stopSignal.png'></img>","SS_trial_type":"go","SS_duration":500,"SSD":250,"stim":"circle","correct_response":"g","current_trial":8,"condition":"go","block_num":0,"correct_trial":0},{"rt":null,"stimulus":"<div class = centerbox><div class = fixation>+</div></div>","response":null,"trial_id":"test_ITI","ITIParams":null,"block_num":0,"exp_stage":"test","choices":["b","y","g","r","e"],"trial_type":"html-keyboard-response","trial_index":28,"time_elapsed":2574640,"internal_node_id":"0.0-6.0-19.0","trial_duration":839.3909806560629,"stimulus_duration":839.3909806560629},{"rt":665,"response":"g","trial_id":"test_trial","exp_stage":"test","trial_duration":1500,"stimulus_duration":1000,"choices":["b","y","g","r","e"],"trial_type":"poldracklab-stop-signal","trial_index":29,"time_elapsed":2576146,"internal_node_id":"0.0-6.0-20.0","response_ends_trial":false,"stimulus":"<div class = centerbox><div class = cue-text><img class = center src='/static/experiments/stop_signal_rdoc__fmri/images/square.png'></img></div></div>","SS_stimulus":"<img class = center src='/static/experiments/stop_signal_rdoc__fmri/images/stopSignal.png'></img>","SS_trial_type":"go","SS_duration":500,"SSD":250,"stim":"square","correct_response":"y","current_trial":9,"condition":"go","block_num":0,"correct_trial":0},{"rt":null,"stimulus":"<div class = centerbox><div class = fixation>+</div></div>","response":null,"trial_id":"test_ITI","ITIParams":null,"block_num":0,"exp_stage":"test","choices":["b","y","g","r","e"],"trial_type":"html-keyboard-response","trial_index":30,"time_elapsed":2576722,"internal_node_id":"0.0-6.0-21.0","trial_duration":574.9804662814739,"stimulus_duration":574.9804662814739},{"rt":null,"response":null,"trial_id":"test_trial","exp_stage":"test","trial_duration":1500,"stimulus_duration":1000,"choices":["b","y","g","r","e"],"trial_type":"poldracklab-stop-signal","trial_index":31,"time_elapsed":2578225,"internal_node_id":"0.0-6.0-22.0","response_ends_trial":false,"stimulus":"<div class = centerbox><div class = cue-text><img class = center src='/static/experiments/stop_signal_rdoc__fmri/images/square.png'></img></div></div>","SS_stimulus":"<img class = center src='/static/experiments/stop_signal_rdoc__fmri/images/stopSignal.png'></img>","SS_trial_type":"stop","SS_duration":500,"SSD":250,"stim":"square","correct_response":"y","current_trial":10,"condition":"stop","block_num":0,"correct_trial":1},{"rt":null,"stimulus":"<div class = centerbox><div class = fixation>+</div></div>","response":null,"trial_id":"test_ITI","ITIParams":null,"block_num":0,"exp_stage":"test","choices":["b","y","g","r","e"],"trial_type":"html-keyboard-response","trial_index":32,"time_elapsed":2580305,"internal_node_id":"0.0-6.0-23.0","trial_duration":2075.384576044204,"stimulus_duration":2075.384576044204},{"rt":851,"response":"g","trial_id":"test_trial","exp_stage":"test","trial_duration":1500,"stimulus_duration":1000,"choices":["b","y","g","r","e"],"trial_type":"poldracklab-stop-signal","trial_index":33,"time_elapsed":2581809,"internal_node_id":"0.0-6.0-24.0","response_ends_trial":false,"stimulus":"<div class = centerbox><div class = cue-text><img class = center src='/static/experiments/stop_signal_rdoc__fmri/images/square.png'></img></div></div>","SS_stimulus":"<img class = center src='/static/experiments/stop_signal_rdoc__fmri/images/stopSignal.png'></img>","SS_trial_type":"go","SS_duration":500,"SSD":300,"stim":"square","correct_response":"y","current_trial":11,"condition":"go","block_num":0,"correct_trial":0},{"rt":null,"stimulus":"<div class = centerbox><div class = fixation>+</div></div>","response":null,"trial_id":"test_ITI","ITIParams":null,"block_num":0,"exp_stage":"test","choices":["b","y","g","r","e"],"trial_type":"html-keyboard-response","trial_index":34,"time_elapsed":2582417,"internal_node_id":"0.0-6.0-25.0","trial_duration":602.0941689287156,"stimulus_duration":602.0941689287156},{"rt":444,"response":"y","trial_id":"test_trial","exp_stage":"test","trial_duration":1500,"stimulus_duration":1000,"choices":["b","y","g","r","e"],"trial_type":"poldracklab-stop-signal","trial_index":35,"time_elapsed":2583923,"internal_node_id":"0.0-6.0-26.0","response_ends_trial":false,"stimulus":"<div class = centerbox><div class = cue-text><img class = center src='/static/experiments/stop_signal_rdoc__fmri/images/circle.png'></img></div></div>","SS_stimulus":"<img class = center src='/static/experiments/stop_signal_rdoc__fmri/images/stopSignal.png'></img>","SS_trial_type":"go","SS_duration":500,"SSD":300,"stim":"circle","correct_response":"g","current_trial":12,"condition":"go","block_num":0,"correct_trial":0},{"rt":null,"stimulus":"<div class = centerbox><div class = fixation>+</div></div>","response":null,"trial_id":"test_ITI","ITIParams":null,"block_num":0,"exp_stage":"test","choices":["b","y","g","r","e"],"trial_type":"html-keyboard-response","trial_index":36,"time_elapsed":2584946,"internal_node_id":"0.0-6.0-27.0","trial_duration":999.6930890805622,"stimulus_duration":999.6930890805622},{"rt":466,"response":"g","trial_id":"test_trial","exp_stage":"test","trial_duration":1500,"stimulus_duration":1000,"choices":["b","y","g","r","e"],"trial_type":"poldracklab-stop-signal","trial_index":37,"time_elapsed":2586452,"internal_node_id":"0.0-6.0-28.0","response_ends_trial":false,"stimulus":"<div class = centerbox><div class = cue-text><img class = center src='/static/experiments/stop_signal_rdoc__fmri/images/square.png'></img></div></div>","SS_stimulus":"<img class = center src='/static/experiments/stop_signal_rdoc__fmri/images/stopSignal.png'></img>","SS_trial_type":"go","SS_duration":500,"SSD":300,"stim":"square","correct_response":"y","current_trial":13,"condition":"go","block_num":0,"correct_trial":0},{"rt":null,"stimulus":"<div class = centerbox><div class = fixation>+</div></div>","response":null,"trial_id":"test_ITI","ITIParams":null,"block_num":0,"exp_stage":"test","choices":["b","y","g","r","e"],"trial_type":"html-keyboard-response","trial_index":38,"time_elapsed":2587175,"internal_node_id":"0.0-6.0-29.0","trial_duration":722.5706834473016,"stimulus_duration":722.5706834473016},{"rt":null,"response":null,"trial_id":"test_trial","exp_stage":"test","trial_duration":1500,"stimulus_duration":1000,"choices":["b","y","g","r","e"],"trial_type":"poldracklab-stop-signal","trial_index":39,"time_elapsed":2588681,"internal_node_id":"0.0-6.0-30.0","response_ends_trial":false,"stimulus":"<div class = centerbox><div class = cue-text><img class = center src='/static/experiments/stop_signal_rdoc__fmri/images/square.png'></img></div></div>","SS_stimulus":"<img class = center src='/static/experiments/stop_signal_rdoc__fmri/images/stopSignal.png'></img>","SS_trial_type":"stop","SS_duration":500,"SSD":300,"stim":"square","correct_response":"y","current_trial":14,"condition":"stop","block_num":0,"correct_trial":1},{"rt":null,"stimulus":"<div class = centerbox><div class = fixation>+</div></div>","response":null,"trial_id":"test_ITI","ITIParams":null,"block_num":0,"exp_stage":"test","choices":["b","y","g","r","e"],"trial_type":"html-keyboard-response","trial_index":40,"time_elapsed":2591489,"internal_node_id":"0.0-6.0-31.0","trial_duration":2802.4029153802703,"stimulus_duration":2802.4029153802703},{"rt":577,"response":"y","trial_id":"test_trial","exp_stage":"test","trial_duration":1500,"stimulus_duration":1000,"choices":["b","y","g","r","e"],"trial_type":"poldracklab-stop-signal","trial_index":41,"time_elapsed":2592995,"internal_node_id":"0.0-6.0-32.0","response_ends_trial":false,"stimulus":"<div class = centerbox><div class = cue-text><img class = center src='/static/experiments/stop_signal_rdoc__fmri/images/circle.png'></img></div></div>","SS_stimulus":"<img class = center src='/static/experiments/stop_signal_rdoc__fmri/images/stopSignal.png'></img>","SS_trial_type":"go","SS_duration":500,"SSD":350,"stim":"circle","correct_response":"g","current_trial":15,"condition":"go","block_num":0,"correct_trial":0},{"rt":null,"stimulus":"<div class = centerbox><div class = fixation>+</div></div>","response":null,"trial_id":"test_ITI","ITIParams":null,"block_num":0,"exp_stage":"test","choices":["b","y","g","r","e"],"trial_type":"html-keyboard-response","trial_index":42,"time_elapsed":2593537,"internal_node_id":"0.0-6.0-33.0","trial_duration":537.5272816036941,"stimulus_duration":537.5272816036941},{"rt":647,"response":"g","trial_id":"test_trial","exp_stage":"test","trial_duration":1500,"stimulus_duration":1000,"choices":["b","y","g","r","e"],"trial_type":"poldracklab-stop-signal","trial_index":43,"time_elapsed":2595044,"internal_node_id":"0.0-6.0-34.0","response_ends_trial":false,"stimulus":"<div class = centerbox><div class = cue-text><img class = center src='/static/experiments/stop_signal_rdoc__fmri/images/square.png'></img></div></div>","SS_stimulus":"<img class = center src='/static/experiments/stop_signal_rdoc__fmri/images/stopSignal.png'></img>","SS_trial_type":"go","SS_duration":500,"SSD":350,"stim":"square","correct_response":"y","current_trial":16,"condition":"go","block_num":0,"correct_trial":0},{"rt":null,"stimulus":"<div class = centerbox><div class = fixation>+</div></div>","response":null,"trial_id":"test_ITI","ITIParams":null,"block_num":0,"exp_stage":"test","choices":["b","y","g","r","e"],"trial_type":"html-keyboard-response","trial_index":44,"time_elapsed":2595791,"internal_node_id":"0.0-6.0-35.0","trial_duration":744.873913868787,"stimulus_duration":744.873913868787},{"rt":567,"response":"g","trial_id":"test_trial","exp_stage":"test","trial_duration":1500,"stimulus_duration":1000,"choices":["b","y","g","r","e"],"trial_type":"poldracklab-stop-signal","trial_index":45,"time_elapsed":2597297,"internal_node_id":"0.0-6.0-36.0","response_ends_trial":false,"stimulus":"<div class = centerbox><div class = cue-text><img class = center src='/static/experiments/stop_signal_rdoc__fmri/images/square.png'></img></div></div>","SS_stimulus":"<img class = center src='/static/experiments/stop_signal_rdoc__fmri/images/stopSignal.png'></img>","SS_trial_type":"go","SS_duration":500,"SSD":350,"stim":"square","correct_response":"y","current_trial":17,"condition":"go","block_num":0,"correct_trial":0},{"rt":null,"stimulus":"<div class = centerbox><div class = fixation>+</div></div>","response":null,"trial_id":"test_ITI","ITIParams":null,"block_num":0,"exp_stage":"test","choices":["b","y","g","r","e"],"trial_type":"html-keyboard-response","trial_index":46,"time_elapsed":2597811,"internal_node_id":"0.0-6.0-37.0","trial_duration":508.2742090119936,"stimulus_duration":508.2742090119936},{"rt":420,"response":"y","trial_id":"test_trial","exp_stage":"test","trial_duration":1500,"stimulus_duration":1000,"choices":["b","y","g","r","e"],"trial_type":"poldracklab-stop-signal","trial_index":47,"time_elapsed":2599317,"internal_node_id":"0.0-6.0-38.0","response_ends_trial":false,"stimulus":"<div class = centerbox><div class = cue-text><img class = center src='/static/experiments/stop_signal_rdoc__fmri/images/circle.png'></img></div></div>","SS_stimulus":"<img class = center src='/static/experiments/stop_signal_rdoc__fmri/images/stopSignal.png'></img>","SS_trial_type":"go","SS_duration":500,"SSD":350,"stim":"circle","correct_response":"g","current_trial":18,"condition":"go","block_num":0,"correct_trial":0},{"rt":null,"stimulus":"<div class = centerbox><div class = fixation>+</div></div>","response":null,"trial_id":"test_ITI","ITIParams":null,"block_num":0,"exp_stage":"test","choices":["b","y","g","r","e"],"trial_type":"html-keyboard-response","trial_index":48,"time_elapsed":2600389,"internal_node_id":"0.0-6.0-39.0","trial_duration":1066.2748244355384,"stimulus_duration":1066.2748244355384},{"rt":502,"response":"y","trial_id":"test_trial","exp_stage":"test","trial_duration":1500,"stimulus_duration":1000,"choices":["b","y","g","r","e"],"trial_type":"poldracklab-stop-signal","trial_index":49,"time_elapsed":2601893,"internal_node_id":"0.0-6.0-40.0","response_ends_trial":false,"stimulus":"<div class = centerbox><div class = cue-text><img class = center src='/static/experiments/stop_signal_rdoc__fmri/images/circle.png'></img></div></div>","SS_stimulus":"<img class = center src='/static/experiments/stop_signal_rdoc__fmri/images/stopSignal.png'></img>","SS_trial_type":"go","SS_duration":500,"SSD":350,"stim":"circle","correct_response":"g","current_trial":19,"condition":"go","block_num":0,"correct_trial":0},{"rt":null,"stimulus":"<div class = centerbox><div class = fixation>+</div></div>","response":null,"trial_id":"test_ITI","ITIParams":null,"block_num":0,"exp_stage":"test","choices":["b","y","g","r","e"],"trial_type":"html-keyboard-response","trial_index":50,"time_elapsed":2602704,"internal_node_id":"0.0-6.0-41.0","trial_duration":806.5720393259426,"stimulus_duration":806.5720393259426},{"rt":524,"response":"g","trial_id":"test_trial","exp_stage":"test","trial_duration":1500,"stimulus_duration":1000,"choices":["b","y","g","r","e"],"trial_type":"poldracklab-stop-signal","trial_index":51,"time_elapsed":2604210,"internal_node_id":"0.0-6.0-42.0","response_ends_trial":false,"stimulus":"<div class = centerbox><div class = cue-text><img class = center src='/static/experiments/stop_signal_rdoc__fmri/images/square.png'></img></div></div>","SS_stimulus":"<img class = center src='/static/experiments/stop_signal_rdoc__fmri/images/stopSignal.png'></img>","SS_trial_type":"go","SS_duration":500,"SSD":350,"stim":"square","correct_response":"y","current_trial":20,"condition":"go","block_num":0,"correct_trial":0},{"rt":null,"stimulus":"<div class = centerbox><div class = fixation>+</div></div>","response":null,"trial_id":"test_ITI","ITIParams":null,"block_num":0,"exp_stage":"test","choices":["b","y","g","r","e"],"trial_type":"html-keyboard-response","trial_index":52,"time_elapsed":2604762,"internal_node_id":"0.0-6.0-43.0","trial_duration":547.6819876548831,"stimulus_duration":547.6819876548831},{"rt":641,"response":"y","trial_id":"test_trial","exp_stage":"test","trial_duration":1500,"stimulus_duration":1000,"choices":["b","y","g","r","e"],"trial_type":"poldracklab-stop-signal","trial_index":53,"time_elapsed":2606265,"internal_node_id":"0.0-6.0-44.0","response_ends_trial":false,"stimulus":"<div class = centerbox><div class = cue-text><img class = center src='/static/experiments/stop_signal_rdoc__fmri/images/circle.png'></img></div></div>","SS_stimulus":"<img class = center src='/static/experiments/stop_signal_rdoc__fmri/images/stopSignal.png'></img>","SS_trial_type":"go","SS_duration":500,"SSD":350,"stim":"circle","correct_response":"g","current_trial":21,"condition":"go","block_num":0,"correct_trial":0},{"rt":null,"stimulus":"<div class = centerbox><div class = fixation>+</div></div>","response":null,"trial_id":"test_ITI","ITIParams":null,"block_num":0,"exp_stage":"test","choices":["b","y","g","r","e"],"trial_type":"html-keyboard-response","trial_index":54,"time_elapsed":2606912,"internal_node_id":"0.0-6.0-45.0","trial_duration":642.1194100058685,"stimulus_duration":642.1194100058685},{"rt":null,"response":null,"trial_id":"test_trial","exp_stage":"test","trial_duration":1500,"stimulus_duration":1000,"choices":["b","y","g","r","e"],"trial_type":"poldracklab-stop-signal","trial_index":55,"time_elapsed":2608418,"internal_node_id":"0.0-6.0-46.0","response_ends_trial":false,"stimulus":"<div class = centerbox><div class = cue-text><img class = center src='/static/experiments/stop_signal_rdoc__fmri/images/circle.png'></img></div></div>","SS_stimulus":"<img class = center src='/static/experiments/stop_signal_rdoc__fmri/images/stopSignal.png'></img>","SS_trial_type":"stop","SS_duration":500,"SSD":350,"stim":"circle","correct_response":"g","current_trial":22,"condition":"stop","block_num":0,"correct_trial":1},{"rt":null,"stimulus":"<div class = centerbox><div class = fixation>+</div></div>","response":null,"trial_id":"test_ITI","ITIParams":null,"block_num":0,"exp_stage":"test","choices":["b","y","g","r","e"],"trial_type":"html-keyboard-response","trial_index":56,"time_elapsed":2609483,"internal_node_id":"0.0-6.0-47.0","trial_duration":956.3365817743588,"stimulus_duration":956.3365817743588},{"rt":532,"response":"y","trial_id":"test_trial","exp_stage":"test","trial_duration":1500,"stimulus_duration":1000,"choices":["b","y","g","r","e"],"trial_type":"poldracklab-stop-signal","trial_index":57,"time_elapsed":2610989,"internal_node_id":"0.0-6.0-48.0","response_ends_trial":false,"stimulus":"<div class = centerbox><div class = cue-text><img class = center src='/static/experiments/stop_signal_rdoc__fmri/images/circle.png'></img></div></div>","SS_stimulus":"<img class = center src='/static/experiments/stop_signal_rdoc__fmri/images/stopSignal.png'></img>","SS_trial_type":"go","SS_duration":500,"SSD":400,"stim":"circle","correct_response":"g","current_trial":23,"condition":"go","block_num":0,"correct_trial":0},{"rt":null,"stimulus":"<div class = centerbox><div class = fixation>+</div></div>","response":null,"trial_id":"test_ITI","ITIParams":null,"block_num":0,"exp_stage":"test","choices":["b","y","g","r","e"],"trial_type":"html-keyboard-response","trial_index":58,"time_elapsed":2611848,"internal_node_id":"0.0-6.0-49.0","trial_duration":854.1249906930304,"stimulus_duration":854.1249906930304},{"rt":577,"response":"g","trial_id":"test_trial","exp_stage":"test","trial_duration":1500,"stimulus_duration":1000,"choices":["b","y","g","r","e"],"trial_type":"poldracklab-stop-signal","trial_index":59,"time_elapsed":2613352,"internal_node_id":"0.0-6.0-50.0","response_ends_trial":false,"stimulus":"<div class = centerbox><div class = cue-text><img class = center src='/static/experiments/stop_signal_rdoc__fmri/images/square.png'></img></div></div>","SS_stimulus":"<img class = center src='/static/experiments/stop_signal_rdoc__fmri/images/stopSignal.png'></img>","SS_trial_type":"go","SS_duration":500,"SSD":400,"stim":"square","correct_response":"y","current_trial":24,"condition":"go","block_num":0,"correct_trial":0},{"rt":null,"stimulus":"<div class = centerbox><div class = fixation>+</div></div>","response":null,"trial_id":"test_ITI","ITIParams":null,"block_num":0,"exp_stage":"test","choices":["b","y","g","r","e"],"trial_type":"html-keyboard-response","trial_index":60,"time_elapsed":2613960,"internal_node_id":"0.0-6.0-51.0","trial_duration":602.6605504044298,"stimulus_duration":602.6605504044298},{"rt":659,"response":"y","trial_id":"test_trial","exp_stage":"test","trial_duration":1500,"stimulus_duration":1000,"choices":["b","y","g","r","e"],"trial_type":"poldracklab-stop-signal","trial_index":61,"time_elapsed":2615463,"internal_node_id":"0.0-6.0-52.0","response_ends_trial":false,"stimulus":"<div class = centerbox><div class = cue-text><img class = center src='/static/experiments/stop_signal_rdoc__fmri/images/circle.png'></img></div></div>","SS_stimulus":"<img class = center src='/static/experiments/stop_signal_rdoc__fmri/images/stopSignal.png'></img>","SS_trial_type":"go","SS_duration":500,"SSD":400,"stim":"circle","correct_response":"g","current_trial":25,"condition":"go","block_num":0,"correct_trial":0},{"rt":null,"stimulus":"<div class = centerbox><div class = fixation>+</div></div>","response":null,"trial_id":"test_ITI","ITIParams":null,"block_num":0,"exp_stage":"test","choices":["b","y","g","r","e"],"trial_type":"html-keyboard-response","trial_index":62,"time_elapsed":2617231,"internal_node_id":"0.0-6.0-53.0","trial_duration":1765.3576975620667,"stimulus_duration":1765.3576975620667},{"rt":586,"response":"y","trial_id":"test_trial","exp_stage":"test","trial_duration":1500,"stimulus_duration":1000,"choices":["b","y","g","r","e"],"trial_type":"poldracklab-stop-signal","trial_index":63,"time_elapsed":2618735,"internal_node_id":"0.0-6.0-54.0","response_ends_trial":false,"stimulus":"<div class = centerbox><div class = cue-text><img class = center src='/static/experiments/stop_signal_rdoc__fmri/images/circle.png'></img></div></div>","SS_stimulus":"<img class = center src='/static/experiments/stop_signal_rdoc__fmri/images/stopSignal.png'></img>","SS_trial_type":"go","SS_duration":500,"SSD":400,"stim":"circle","correct_response":"g","current_trial":26,"condition":"go","block_num":0,"correct_trial":0},{"rt":null,"stimulus":"<div class = centerbox><div class = fixation>+</div></div>","response":null,"trial_id":"test_ITI","ITIParams":null,"block_num":0,"exp_stage":"test","choices":["b","y","g","r","e"],"trial_type":"html-keyboard-response","trial_index":64,"time_elapsed":2620708,"internal_node_id":"0.0-6.0-55.0","trial_duration":1967.6220067588517,"stimulus_duration":1967.6220067588517},{"rt":646,"response":"g","trial_id":"test_trial","exp_stage":"test","trial_duration":1500,"stimulus_duration":1000,"choices":["b","y","g","r","e"],"trial_type":"poldracklab-stop-signal","trial_index":65,"time_elapsed":2622214,"internal_node_id":"0.0-6.0-56.0","response_ends_trial":false,"stimulus":"<div class = centerbox><div class = cue-text><img class = center src='/static/experiments/stop_signal_rdoc__fmri/images/square.png'></img></div></div>","SS_stimulus":"<img class = center src='/static/experiments/stop_signal_rdoc__fmri/images/stopSignal.png'></img>","SS_trial_type":"go","SS_duration":500,"SSD":400,"stim":"square","correct_response":"y","current_trial":27,"condition":"go","block_num":0,"correct_trial":0},{"rt":null,"stimulus":"<div class = centerbox><div class = fixation>+</div></div>","response":null,"trial_id":"test_ITI","ITIParams":null,"block_num":0,"exp_stage":"test","choices":["b","y","g","r","e"],"trial_type":"html-keyboard-response","trial_index":66,"time_elapsed":2622797,"internal_node_id":"0.0-6.0-57.0","trial_duration":582.4991028527506,"stimulus_duration":582.4991028527506},{"rt":788,"response":"y","trial_id":"test_trial","exp_stage":"test","trial_duration":1500,"stimulus_duration":1000,"choices":["b","y","g","r","e"],"trial_type":"poldracklab-stop-signal","trial_index":67,"time_elapsed":2624303,"internal_node_id":"0.0-6.0-58.0","response_ends_trial":false,"stimulus":"<div class = centerbox><div class = cue-text><img class = center src='/static/experiments/stop_signal_rdoc__fmri/images/circle.png'></img></div></div>","SS_stimulus":"<img class = center src='/static/experiments/stop_signal_rdoc__fmri/images/stopSignal.png'></img>","SS_trial_type":"go","SS_duration":500,"SSD":400,"stim":"circle","correct_response":"g","current_trial":28,"condition":"go","block_num":0,"correct_trial":0},{"rt":null,"stimulus":"<div class = centerbox><div class = fixation>+</div></div>","response":null,"trial_id":"test_ITI","ITIParams":null,"block_num":0,"exp_stage":"test","choices":["b","y","g","r","e"],"trial_type":"html-keyboard-response","trial_index":68,"time_elapsed":2625290,"internal_node_id":"0.0-6.0-59.0","trial_duration":982.2470423703038,"stimulus_duration":982.2470423703038},{"rt":612,"response":"y","trial_id":"test_trial","exp_stage":"test","trial_duration":1500,"stimulus_duration":1000,"choices":["b","y","g","r","e"],"trial_type":"poldracklab-stop-signal","trial_index":69,"time_elapsed":2626793,"internal_node_id":"0.0-6.0-60.0","response_ends_trial":false,"stimulus":"<div class = centerbox><div class = cue-text><img class = center src='/static/experiments/stop_signal_rdoc__fmri/images/circle.png'></img></div></div>","SS_stimulus":"<img class = center src='/static/experiments/stop_signal_rdoc__fmri/images/stopSignal.png'></img>","SS_trial_type":"go","SS_duration":500,"SSD":400,"stim":"circle","correct_response":"g","current_trial":29,"condition":"go","block_num":0,"correct_trial":0},{"rt":null,"stimulus":"<div class = centerbox><div class = fixation>+</div></div>","response":null,"trial_id":"test_ITI","ITIParams":null,"block_num":0,"exp_stage":"test","choices":["b","y","g","r","e"],"trial_type":"html-keyboard-response","trial_index":70,"time_elapsed":2627737,"internal_node_id":"0.0-6.0-61.0","trial_duration":889.3699319873889,"stimulus_duration":889.3699319873889},{"rt":null,"response":null,"trial_id":"test_trial","exp_stage":"test","trial_duration":1500,"stimulus_duration":1000,"choices":["b","y","g","r","e"],"trial_type":"poldracklab-stop-signal","trial_index":71,"time_elapsed":2629242,"internal_node_id":"0.0-6.0-62.0","response_ends_trial":false,"stimulus":"<div class = centerbox><div class = cue-text><img class = center src='/static/experiments/stop_signal_rdoc__fmri/images/circle.png'></img></div></div>","SS_stimulus":"<img class = center src='/static/experiments/stop_signal_rdoc__fmri/images/stopSignal.png'></img>","SS_trial_type":"stop","SS_duration":500,"SSD":400,"stim":"circle","correct_response":"g","current_trial":30,"condition":"stop","block_num":0,"correct_trial":1},{"rt":null,"stimulus":"<div class = centerbox><div class = fixation>+</div></div>","response":null,"trial_id":"test_ITI","ITIParams":null,"block_num":0,"exp_stage":"test","choices":["b","y","g","r","e"],"trial_type":"html-keyboard-response","trial_index":72,"time_elapsed":2629973,"internal_node_id":"0.0-6.0-63.0","trial_duration":724.2377331940162,"stimulus_duration":724.2377331940162},{"rt":530,"response":"g","trial_id":"test_trial","exp_stage":"test","trial_duration":1500,"stimulus_duration":1000,"choices":["b","y","g","r","e"],"trial_type":"poldracklab-stop-signal","trial_index":73,"time_elapsed":2631476,"internal_node_id":"0.0-6.0-64.0","response_ends_trial":false,"stimulus":"<div class = centerbox><div class = cue-text><img class = center src='/static/experiments/stop_signal_rdoc__fmri/images/square.png'></img></div></div>","SS_stimulus":"<img class = center src='/static/experiments/stop_signal_rdoc__fmri/images/stopSignal.png'></img>","SS_trial_type":"go","SS_duration":500,"SSD":450,"stim":"square","correct_response":"y","current_trial":31,"condition":"go","block_num":0,"correct_trial":0},{"rt":null,"stimulus":"<div class = centerbox><div class = fixation>+</div></div>","response":null,"trial_id":"test_ITI","ITIParams":null,"block_num":0,"exp_stage":"test","choices":["b","y","g","r","e"],"trial_type":"html-keyboard-response","trial_index":74,"time_elapsed":2632026,"internal_node_id":"0.0-6.0-65.0","trial_duration":544.0541526145068,"stimulus_duration":544.0541526145068},{"rt":533,"response":"y","trial_id":"test_trial","exp_stage":"test","trial_duration":1500,"stimulus_duration":1000,"choices":["b","y","g","r","e"],"trial_type":"poldracklab-stop-signal","trial_index":75,"time_elapsed":2633531,"internal_node_id":"0.0-6.0-66.0","response_ends_trial":false,"stimulus":"<div class = centerbox><div class = cue-text><img class = center src='/static/experiments/stop_signal_rdoc__fmri/images/circle.png'></img></div></div>","SS_stimulus":"<img class = center src='/static/experiments/stop_signal_rdoc__fmri/images/stopSignal.png'></img>","SS_trial_type":"stop","SS_duration":500,"SSD":450,"stim":"circle","correct_response":"g","current_trial":32,"condition":"stop","block_num":0,"correct_trial":0},{"rt":null,"stimulus":"<div class = centerbox><div class = fixation>+</div></div>","response":null,"trial_id":"test_ITI","ITIParams":null,"block_num":0,"exp_stage":"test","choices":["b","y","g","r","e"],"trial_type":"html-keyboard-response","trial_index":76,"time_elapsed":2634197,"internal_node_id":"0.0-6.0-67.0","trial_duration":659.8949604340589,"stimulus_duration":659.8949604340589},{"rt":539,"response":"g","trial_id":"test_trial","exp_stage":"test","trial_duration":1500,"stimulus_duration":1000,"choices":["b","y","g","r","e"],"trial_type":"poldracklab-stop-signal","trial_index":77,"time_elapsed":2635702,"internal_node_id":"0.0-6.0-68.0","response_ends_trial":false,"stimulus":"<div class = centerbox><div class = cue-text><img class = center src='/static/experiments/stop_signal_rdoc__fmri/images/square.png'></img></div></div>","SS_stimulus":"<img class = center src='/static/experiments/stop_signal_rdoc__fmri/images/stopSignal.png'></img>","SS_trial_type":"stop","SS_duration":500,"SSD":400,"stim":"square","correct_response":"y","current_trial":33,"condition":"stop","block_num":0,"correct_trial":0},{"rt":null,"stimulus":"<div class = centerbox><div class = fixation>+</div></div>","response":null,"trial_id":"test_ITI","ITIParams":null,"block_num":0,"exp_stage":"test","choices":["b","y","g","r","e"],"trial_type":"html-keyboard-response","trial_index":78,"time_elapsed":2636478,"internal_node_id":"0.0-6.0-69.0","trial_duration":769.3768830036021,"stimulus_duration":769.3768830036021},{"rt":null,"response":null,"trial_id":"test_trial","exp_stage":"test","trial_duration":1500,"stimulus_duration":1000,"choices":["b","y","g","r","e"],"trial_type":"poldracklab-stop-signal","trial_index":79,"time_elapsed":2637983,"internal_node_id":"0.0-6.0-70.0","response_ends_trial":false,"stimulus":"<div class = centerbox><div class = cue-text><img class = center src='/static/experiments/stop_signal_rdoc__fmri/images/circle.png'></img></div></div>","SS_stimulus":"<img class = center src='/static/experiments/stop_signal_rdoc__fmri/images/stopSignal.png'></img>","SS_trial_type":"stop","SS_duration":500,"SSD":350,"stim":"circle","correct_response":"g","current_trial":34,"condition":"stop","block_num":0,"correct_trial":1},{"rt":null,"stimulus":"<div class = centerbox><div class = fixation>+</div></div>","response":null,"trial_id":"test_ITI","ITIParams":null,"block_num":0,"exp_stage":"test","choices":["b","y","g","r","e"],"trial_type":"html-keyboard-response","trial_index":80,"time_elapsed":2639062,"internal_node_id":"0.0-6.0-71.0","trial_duration":1073.980921531856,"stimulus_duration":1073.980921531856},{"rt":581,"response":"g","trial_id":"test_trial","exp_stage":"test","trial_duration":1500,"stimulus_duration":1000,"choices":["b","y","g","r","e"],"trial_type":"poldracklab-stop-signal","trial_index":81,"time_elapsed":2640568,"internal_node_id":"0.0-6.0-72.0","response_ends_trial":false,"stimulus":"<div class = centerbox><div class = cue-text><img class = center src='/static/experiments/stop_signal_rdoc__fmri/images/square.png'></img></div></div>","SS_stimulus":"<img class = center src='/static/experiments/stop_signal_rdoc__fmri/images/stopSignal.png'></img>","SS_trial_type":"go","SS_duration":500,"SSD":400,"stim":"square","correct_response":"y","current_trial":35,"condition":"go","block_num":0,"correct_trial":0},{"rt":null,"stimulus":"<div class = centerbox><div class = fixation>+</div></div>","response":null,"trial_id":"test_ITI","ITIParams":null,"block_num":0,"exp_stage":"test","choices":["b","y","g","r","e"],"trial_type":"html-keyboard-response","trial_index":82,"time_elapsed":2641397,"internal_node_id":"0.0-6.0-73.0","trial_duration":825.8428251027397,"stimulus_duration":825.8428251027397},{"rt":400,"response":"y","trial_id":"test_trial","exp_stage":"test","trial_duration":1500,"stimulus_duration":1000,"choices":["b","y","g","r","e"],"trial_type":"poldracklab-stop-signal","trial_index":83,"time_elapsed":2642901,"internal_node_id":"0.0-6.0-74.0","response_ends_trial":false,"stimulus":"<div class = centerbox><div class = cue-text><img class = center src='/static/experiments/stop_signal_rdoc__fmri/images/circle.png'></img></div></div>","SS_stimulus":"<img class = center src='/static/experiments/stop_signal_rdoc__fmri/images/stopSignal.png'></img>","SS_trial_type":"stop","SS_duration":500,"SSD":400,"stim":"circle","correct_response":"g","current_trial":36,"condition":"stop","block_num":0,"correct_trial":0},{"rt":null,"stimulus":"<div class = centerbox><div class = fixation>+</div></div>","response":null,"trial_id":"test_ITI","ITIParams":null,"block_num":0,"exp_stage":"test","choices":["b","y","g","r","e"],"trial_type":"html-keyboard-response","trial_index":84,"time_elapsed":2644984,"internal_node_id":"0.0-6.0-75.0","trial_duration":2078.5474797959723,"stimulus_duration":2078.5474797959723},{"rt":688,"response":"g","trial_id":"test_trial","exp_stage":"test","trial_duration":1500,"stimulus_duration":1000,"choices":["b","y","g","r","e"],"trial_type":"poldracklab-stop-signal","trial_index":85,"time_elapsed":2646489,"internal_node_id":"0.0-6.0-76.0","response_ends_trial":false,"stimulus":"<div class = centerbox><div class = cue-text><img class = center src='/static/experiments/stop_signal_rdoc__fmri/images/square.png'></img></div></div>","SS_stimulus":"<img class = center src='/static/experiments/stop_signal_rdoc__fmri/images/stopSignal.png'></img>","SS_trial_type":"go","SS_duration":500,"SSD":350,"stim":"square","correct_response":"y","current_trial":37,"condition":"go","block_num":0,"correct_trial":0},{"rt":null,"stimulus":"<div class = centerbox><div class = fixation>+</div></div>","response":null,"trial_id":"test_ITI","ITIParams":null,"block_num":0,"exp_stage":"test","choices":["b","y","g","r","e"],"trial_type":"html-keyboard-response","trial_index":86,"time_elapsed":2647159,"internal_node_id":"0.0-6.0-77.0","trial_duration":664.4981369810239,"stimulus_duration":664.4981369810239},{"rt":594,"response":"y","trial_id":"test_trial","exp_stage":"test","trial_duration":1500,"stimulus_duration":1000,"choices":["b","y","g","r","e"],"trial_type":"poldracklab-stop-signal","trial_index":87,"time_elapsed":2648662,"internal_node_id":"0.0-6.0-78.0","response_ends_trial":false,"stimulus":"<div class = centerbox><div class = cue-text><img class = center src='/static/experiments/stop_signal_rdoc__fmri/images/circle.png'></img></div></div>","SS_stimulus":"<img class = center src='/static/experiments/stop_signal_rdoc__fmri/images/stopSignal.png'></img>","SS_trial_type":"go","SS_duration":500,"SSD":350,"stim":"circle","correct_response":"g","current_trial":38,"condition":"go","block_num":0,"correct_trial":0},{"rt":null,"stimulus":"<div class = centerbox><div class = fixation>+</div></div>","response":null,"trial_id":"test_ITI","ITIParams":null,"block_num":0,"exp_stage":"test","choices":["b","y","g","r","e"],"trial_type":"html-keyboard-response","trial_index":88,"time_elapsed":2649666,"internal_node_id":"0.0-6.0-79.0","trial_duration":998.9853373082269,"stimulus_duration":998.9853373082269},{"rt":null,"response":null,"trial_id":"test_trial","exp_stage":"test","trial_duration":1500,"stimulus_duration":1000,"choices":["b","y","g","r","e"],"trial_type":"poldracklab-stop-signal","trial_index":89,"time_elapsed":2651172,"internal_node_id":"0.0-6.0-80.0","response_ends_trial":false,"stimulus":"<div class = centerbox><div class = cue-text><img class = center src='/static/experiments/stop_signal_rdoc__fmri/images/circle.png'></img></div></div>","SS_stimulus":"<img class = center src='/static/experiments/stop_signal_rdoc__fmri/images/stopSignal.png'></img>","SS_trial_type":"stop","SS_duration":500,"SSD":350,"stim":"circle","correct_response":"g","current_trial":39,"condition":"stop","block_num":0,"correct_trial":1},{"rt":null,"stimulus":"<div class = centerbox><div class = fixation>+</div></div>","response":null,"trial_id":"test_ITI","ITIParams":null,"block_num":0,"exp_stage":"test","choices":["b","y","g","r","e"],"trial_type":"html-keyboard-response","trial_index":90,"time_elapsed":2651859,"internal_node_id":"0.0-6.0-81.0","trial_duration":681.7502467713439,"stimulus_duration":681.7502467713439},{"rt":606,"response":"y","trial_id":"test_trial","exp_stage":"test","trial_duration":1500,"stimulus_duration":1000,"choices":["b","y","g","r","e"],"trial_type":"poldracklab-stop-signal","trial_index":91,"time_elapsed":2653365,"internal_node_id":"0.0-6.0-82.0","response_ends_trial":false,"stimulus":"<div class = centerbox><div class = cue-text><img class = center src='/static/experiments/stop_signal_rdoc__fmri/images/circle.png'></img></div></div>","SS_stimulus":"<img class = center src='/static/experiments/stop_signal_rdoc__fmri/images/stopSignal.png'></img>","SS_trial_type":"stop","SS_duration":500,"SSD":400,"stim":"circle","correct_response":"g","current_trial":40,"condition":"stop","block_num":0,"correct_trial":0},{"rt":null,"stimulus":"<div class = centerbox><div class = fixation>+</div></div>","response":null,"trial_id":"test_ITI","ITIParams":null,"block_num":0,"exp_stage":"test","choices":["b","y","g","r","e"],"trial_type":"html-keyboard-response","trial_index":92,"time_elapsed":2654075,"internal_node_id":"0.0-6.0-83.0","trial_duration":704.5995037555883,"stimulus_duration":704.5995037555883},{"rt":658,"response":"y","trial_id":"test_trial","exp_stage":"test","trial_duration":1500,"stimulus_duration":1000,"choices":["b","y","g","r","e"],"trial_type":"poldracklab-stop-signal","trial_index":93,"time_elapsed":2655580,"internal_node_id":"0.0-6.0-84.0","response_ends_trial":false,"stimulus":"<div class = centerbox><div class = cue-text><img class = center src='/static/experiments/stop_signal_rdoc__fmri/images/circle.png'></img></div></div>","SS_stimulus":"<img class = center src='/static/experiments/stop_signal_rdoc__fmri/images/stopSignal.png'></img>","SS_trial_type":"go","SS_duration":500,"SSD":350,"stim":"circle","correct_response":"g","current_trial":41,"condition":"go","block_num":0,"correct_trial":0},{"rt":null,"stimulus":"<div class = centerbox><div class = fixation>+</div></div>","response":null,"trial_id":"test_ITI","ITIParams":null,"block_num":0,"exp_stage":"test","choices":["b","y","g","r","e"],"trial_type":"html-keyboard-response","trial_index":94,"time_elapsed":2656489,"internal_node_id":"0.0-6.0-85.0","trial_duration":903.4687879525904,"stimulus_duration":903.4687879525904},{"rt":null,"response":null,"trial_id":"test_trial","exp_stage":"test","trial_duration":1500,"stimulus_duration":1000,"choices":["b","y","g","r","e"],"trial_type":"poldracklab-stop-signal","trial_index":95,"time_elapsed":2657995,"internal_node_id":"0.0-6.0-86.0","response_ends_trial":false,"stimulus":"<div class = centerbox><div class = cue-text><img class = center src='/static/experiments/stop_signal_rdoc__fmri/images/square.png'></img></div></div>","SS_stimulus":"<img class = center src='/static/experiments/stop_signal_rdoc__fmri/images/stopSignal.png'></img>","SS_trial_type":"stop","SS_duration":500,"SSD":350,"stim":"square","correct_response":"y","current_trial":42,"condition":"stop","block_num":0,"correct_trial":1},{"rt":null,"stimulus":"<div class = centerbox><div class = fixation>+</div></div>","response":null,"trial_id":"test_ITI","ITIParams":null,"block_num":0,"exp_stage":"test","choices":["b","y","g","r","e"],"trial_type":"html-keyboard-response","trial_index":96,"time_elapsed":2660146,"internal_node_id":"0.0-6.0-87.0","trial_duration":2034.6982098971012,"stimulus_duration":2034.6982098971012},{"rt":634,"response":"y","trial_id":"test_trial","exp_stage":"test","trial_duration":1500,"stimulus_duration":1000,"choices":["b","y","g","r","e"],"trial_type":"poldracklab-stop-signal","trial_index":97,"time_elapsed":2661651,"internal_node_id":"0.0-6.0-88.0","response_ends_trial":false,"stimulus":"<div class = centerbox><div class = cue-text><img class = center src='/static/experiments/stop_signal_rdoc__fmri/images/circle.png'></img></div></div>","SS_stimulus":"<img class = center src='/static/experiments/stop_signal_rdoc__fmri/images/stopSignal.png'></img>","SS_trial_type":"go","SS_duration":500,"SSD":400,"stim":"circle","correct_response":"g","current_trial":43,"condition":"go","block_num":0,"correct_trial":0},{"rt":null,"stimulus":"<div class = centerbox><div class = fixation>+</div></div>","response":null,"trial_id":"test_ITI","ITIParams":null,"block_num":0,"exp_stage":"test","choices":["b","y","g","r","e"],"trial_type":"html-keyboard-response","trial_index":98,"time_elapsed":2662491,"internal_node_id":"0.0-6.0-89.0","trial_duration":834.6992106365718,"stimulus_duration":834.6992106365718},{"rt":685,"response":"g","trial_id":"test_trial","exp_stage":"test","trial_duration":1500,"stimulus_duration":1000,"choices":["b","y","g","r","e"],"trial_type":"poldracklab-stop-signal","trial_index":99,"time_elapsed":2663993,"internal_node_id":"0.0-6.0-90.0","response_ends_trial":false,"stimulus":"<div class = centerbox><div class = cue-text><img class = center src='/static/experiments/stop_signal_rdoc__fmri/images/square.png'></img></div></div>","SS_stimulus":"<img class = center src='/static/experiments/stop_signal_rdoc__fmri/images/stopSignal.png'></img>","SS_trial_type":"go","SS_duration":500,"SSD":400,"stim":"square","correct_response":"y","current_trial":44,"condition":"go","block_num":0,"correct_trial":0},{"rt":null,"stimulus":"<div class = centerbox><div class = fixation>+</div></div>","response":null,"trial_id":"test_ITI","ITIParams":null,"block_num":0,"exp_stage":"test","choices":["b","y","g","r","e"],"trial_type":"html-keyboard-response","trial_index":100,"time_elapsed":2664560,"internal_node_id":"0.0-6.0-91.0","trial_duration":563.4072563885866,"stimulus_duration":563.4072563885866},{"rt":null,"response":null,"trial_id":"test_trial","exp_stage":"test","trial_duration":1500,"stimulus_duration":1000,"choices":["b","y","g","r","e"],"trial_type":"poldracklab-stop-signal","trial_index":101,"time_elapsed":2666065,"internal_node_id":"0.0-6.0-92.0","response_ends_trial":false,"stimulus":"<div class = centerbox><div class = cue-text><img class = center src='/static/experiments/stop_signal_rdoc__fmri/images/circle.png'></img></div></div>","SS_stimulus":"<img class = center src='/static/experiments/stop_signal_rdoc__fmri/images/stopSignal.png'></img>","SS_trial_type":"stop","SS_duration":500,"SSD":400,"stim":"circle","correct_response":"g","current_trial":45,"condition":"stop","block_num":0,"correct_trial":1},{"rt":null,"stimulus":"<div class = centerbox><div class = fixation>+</div></div>","response":null,"trial_id":"test_ITI","ITIParams":null,"block_num":0,"exp_stage":"test","choices":["b","y","g","r","e"],"trial_type":"html-keyboard-response","trial_index":102,"time_elapsed":2666678,"internal_node_id":"0.0-6.0-93.0","trial_duration":607.1684266153596,"stimulus_duration":607.1684266153596},{"rt":604,"response":"y","trial_id":"test_trial","exp_stage":"test","trial_duration":1500,"stimulus_duration":1000,"choices":["b","y","g","r","e"],"trial_type":"poldracklab-stop-signal","trial_index":103,"time_elapsed":2668211,"internal_node_id":"0.0-6.0-94.0","response_ends_trial":false,"stimulus":"<div class = centerbox><div class = cue-text><img class = center src='/static/experiments/stop_signal_rdoc__fmri/images/circle.png'></img></div></div>","SS_stimulus":"<img class = center src='/static/experiments/stop_signal_rdoc__fmri/images/stopSignal.png'></img>","SS_trial_type":"stop","SS_duration":500,"SSD":450,"stim":"circle","correct_response":"g","current_trial":46,"condition":"stop","block_num":0,"correct_trial":0},{"rt":null,"stimulus":"<div class = centerbox><div class = fixation>+</div></div>","response":null,"trial_id":"test_ITI","ITIParams":null,"block_num":0,"exp_stage":"test","choices":["b","y","g","r","e"],"trial_type":"html-keyboard-response","trial_index":104,"time_elapsed":2668752,"internal_node_id":"0.0-6.0-95.0","trial_duration":539.8106711567578,"stimulus_duration":539.8106711567578},{"rt":747,"response":"g","trial_id":"test_trial","exp_stage":"test","trial_duration":1500,"stimulus_duration":1000,"choices":["b","y","g","r","e"],"trial_type":"poldracklab-stop-signal","trial_index":105,"time_elapsed":2670258,"internal_node_id":"0.0-6.0-96.0","response_ends_trial":false,"stimulus":"<div class = centerbox><div class = cue-text><img class = center src='/static/experiments/stop_signal_rdoc__fmri/images/square.png'></img></div></div>","SS_stimulus":"<img class = center src='/static/experiments/stop_signal_rdoc__fmri/images/stopSignal.png'></img>","SS_trial_type":"go","SS_duration":500,"SSD":400,"stim":"square","correct_response":"y","current_trial":47,"condition":"go","block_num":0,"correct_trial":0},{"rt":null,"stimulus":"<div class = centerbox><div class = fixation>+</div></div>","response":null,"trial_id":"test_ITI","ITIParams":null,"block_num":0,"exp_stage":"test","choices":["b","y","g","r","e"],"trial_type":"html-keyboard-response","trial_index":106,"time_elapsed":2671622,"internal_node_id":"0.0-6.0-97.0","trial_duration":1361.3054175776397,"stimulus_duration":1361.3054175776397},{"rt":592,"response":"y","trial_id":"test_trial","exp_stage":"test","trial_duration":1500,"stimulus_duration":1000,"choices":["b","y","g","r","e"],"trial_type":"poldracklab-stop-signal","trial_index":107,"time_elapsed":2673126,"internal_node_id":"0.0-6.0-98.0","response_ends_trial":false,"stimulus":"<div class = centerbox><div class = cue-text><img class = center src='/static/experiments/stop_signal_rdoc__fmri/images/circle.png'></img></div></div>","SS_stimulus":"<img class = center src='/static/experiments/stop_signal_rdoc__fmri/images/stopSignal.png'></img>","SS_trial_type":"go","SS_duration":500,"SSD":400,"stim":"circle","correct_response":"g","current_trial":48,"condition":"go","block_num":0,"correct_trial":0},{"rt":null,"stimulus":"<div class = centerbox><div class = fixation>+</div></div>","response":null,"trial_id":"test_ITI","ITIParams":null,"block_num":0,"exp_stage":"test","choices":["b","y","g","r","e"],"trial_type":"html-keyboard-response","trial_index":108,"time_elapsed":2673652,"internal_node_id":"0.0-6.0-99.0","trial_duration":524.6339813844969,"stimulus_duration":524.6339813844969},{"rt":null,"response":null,"trial_id":"test_trial","exp_stage":"test","trial_duration":1500,"stimulus_duration":1000,"choices":["b","y","g","r","e"],"trial_type":"poldracklab-stop-signal","trial_index":109,"time_elapsed":2675158,"internal_node_id":"0.0-6.0-100.0","response_ends_trial":false,"stimulus":"<div class = centerbox><div class = cue-text><img class = center src='/static/experiments/stop_signal_rdoc__fmri/images/square.png'></img></div></div>","SS_stimulus":"<img class = center src='/static/experiments/stop_signal_rdoc__fmri/images/stopSignal.png'></img>","SS_trial_type":"stop","SS_duration":500,"SSD":400,"stim":"square","correct_response":"y","current_trial":49,"condition":"stop","block_num":0,"correct_trial":1},{"rt":null,"stimulus":"<div class = centerbox><div class = fixation>+</div></div>","response":null,"trial_id":"test_ITI","ITIParams":null,"block_num":0,"exp_stage":"test","choices":["b","y","g","r","e"],"trial_type":"html-keyboard-response","trial_index":110,"time_elapsed":2675978,"internal_node_id":"0.0-6.0-101.0","trial_duration":815.2821710885831,"stimulus_duration":815.2821710885831},{"rt":564,"response":"g","trial_id":"test_trial","exp_stage":"test","trial_duration":1500,"stimulus_duration":1000,"choices":["b","y","g","r","e"],"trial_type":"poldracklab-stop-signal","trial_index":111,"time_elapsed":2677484,"internal_node_id":"0.0-6.0-102.0","response_ends_trial":false,"stimulus":"<div class = centerbox><div class = cue-text><img class = center src='/static/experiments/stop_signal_rdoc__fmri/images/square.png'></img></div></div>","SS_stimulus":"<img class = center src='/static/experiments/stop_signal_rdoc__fmri/images/stopSignal.png'></img>","SS_trial_type":"go","SS_duration":500,"SSD":450,"stim":"square","correct_response":"y","current_trial":50,"condition":"go","block_num":0,"correct_trial":0},{"rt":null,"stimulus":"<div class = centerbox><div class = fixation>+</div></div>","response":null,"trial_id":"test_ITI","ITIParams":null,"block_num":0,"exp_stage":"test","choices":["b","y","g","r","e"],"trial_type":"html-keyboard-response","trial_index":112,"time_elapsed":2678225,"internal_node_id":"0.0-6.0-103.0","trial_duration":716.0829486626028,"stimulus_duration":716.0829486626028},{"rt":631,"response":"g","trial_id":"test_trial","exp_stage":"test","trial_duration":1500,"stimulus_duration":1000,"choices":["b","y","g","r","e"],"trial_type":"poldracklab-stop-signal","trial_index":113,"time_elapsed":2679729,"internal_node_id":"0.0-6.0-104.0","response_ends_trial":false,"stimulus":"<div class = centerbox><div class = cue-text><img class = center src='/static/experiments/stop_signal_rdoc__fmri/images/square.png'></img></div></div>","SS_stimulus":"<img class = center src='/static/experiments/stop_signal_rdoc__fmri/images/stopSignal.png'></img>","SS_trial_type":"go","SS_duration":500,"SSD":450,"stim":"square","correct_response":"y","current_trial":51,"condition":"go","block_num":0,"correct_trial":0},{"rt":null,"stimulus":"<div class = centerbox><div class = fixation>+</div></div>","response":null,"trial_id":"test_ITI","ITIParams":null,"block_num":0,"exp_stage":"test","choices":["b","y","g","r","e"],"trial_type":"html-keyboard-response","trial_index":114,"time_elapsed":2680306,"internal_node_id":"0.0-6.0-105.0","trial_duration":555.0108055029597,"stimulus_duration":555.0108055029597},{"rt":null,"response":null,"trial_id":"test_trial","exp_stage":"test","trial_duration":1500,"stimulus_duration":1000,"choices":["b","y","g","r","e"],"trial_type":"poldracklab-stop-signal","trial_index":115,"time_elapsed":2681812,"internal_node_id":"0.0-6.0-106.0","response_ends_trial":false,"stimulus":"<div class = centerbox><div class = cue-text><img class = center src='/static/experiments/stop_signal_rdoc__fmri/images/square.png'></img></div></div>","SS_stimulus":"<img class = center src='/static/experiments/stop_signal_rdoc__fmri/images/stopSignal.png'></img>","SS_trial_type":"stop","SS_duration":500,"SSD":450,"stim":"square","correct_response":"y","current_trial":52,"condition":"stop","block_num":0,"correct_trial":1},{"rt":null,"stimulus":"<div class = centerbox><div class = fixation>+</div></div>","response":null,"trial_id":"test_ITI","ITIParams":null,"block_num":0,"exp_stage":"test","choices":["b","y","g","r","e"],"trial_type":"html-keyboard-response","trial_index":116,"time_elapsed":2682368,"internal_node_id":"0.0-6.0-107.0","trial_duration":552.6880774169172,"stimulus_duration":552.6880774169172},{"rt":746,"response":"g","trial_id":"test_trial","exp_stage":"test","trial_duration":1500,"stimulus_duration":1000,"choices":["b","y","g","r","e"],"trial_type":"poldracklab-stop-signal","trial_index":117,"time_elapsed":2683874,"internal_node_id":"0.0-6.0-108.0","response_ends_trial":false,"stimulus":"<div class = centerbox><div class = cue-text><img class = center src='/static/experiments/stop_signal_rdoc__fmri/images/square.png'></img></div></div>","SS_stimulus":"<img class = center src='/static/experiments/stop_signal_rdoc__fmri/images/stopSignal.png'></img>","SS_trial_type":"go","SS_duration":500,"SSD":500,"stim":"square","correct_response":"y","current_trial":53,"condition":"go","block_num":0,"correct_trial":0},{"rt":null,"stimulus":"<div class = centerbox><div class = fixation>+</div></div>","response":null,"trial_id":"test_ITI","ITIParams":null,"block_num":0,"exp_stage":"test","choices":["b","y","g","r","e"],"trial_type":"html-keyboard-response","trial_index":118,"time_elapsed":2684718,"internal_node_id":"0.0-6.0-109.0","trial_duration":843.6977633071479,"stimulus_duration":843.6977633071479},{"rt":721,"response":"g","trial_id":"test_trial","exp_stage":"test","trial_duration":1500,"stimulus_duration":1000,"choices":["b","y","g","r","e"],"trial_type":"poldracklab-stop-signal","trial_index":119,"time_elapsed":2686224,"internal_node_id":"0.0-6.0-110.0","response_ends_trial":false,"stimulus":"<div class = centerbox><div class = cue-text><img class = center src='/static/experiments/stop_signal_rdoc__fmri/images/square.png'></img></div></div>","SS_stimulus":"<img class = center src='/static/experiments/stop_signal_rdoc__fmri/images/stopSignal.png'></img>","SS_trial_type":"go","SS_duration":500,"SSD":500,"stim":"square","correct_response":"y","current_trial":54,"condition":"go","block_num":0,"correct_trial":0},{"rt":null,"stimulus":"<div class = centerbox><div class = fixation>+</div></div>","response":null,"trial_id":"test_ITI","ITIParams":null,"block_num":0,"exp_stage":"test","choices":["b","y","g","r","e"],"trial_type":"html-keyboard-response","trial_index":120,"time_elapsed":2687123,"internal_node_id":"0.0-6.0-111.0","trial_duration":893.5248442275849,"stimulus_duration":893.5248442275849},{"rt":null,"response":null,"trial_id":"test_trial","exp_stage":"test","trial_duration":1500,"stimulus_duration":1000,"choices":["b","y","g","r","e"],"trial_type":"poldracklab-stop-signal","trial_index":121,"time_elapsed":2688628,"internal_node_id":"0.0-6.0-112.0","response_ends_trial":false,"stimulus":"<div class = centerbox><div class = cue-text><img class = center src='/static/experiments/stop_signal_rdoc__fmri/images/square.png'></img></div></div>","SS_stimulus":"<img class = center src='/static/experiments/stop_signal_rdoc__fmri/images/stopSignal.png'></img>","SS_trial_type":"stop","SS_duration":500,"SSD":500,"stim":"square","correct_response":"y","current_trial":55,"condition":"stop","block_num":0,"correct_trial":1},{"rt":null,"stimulus":"<div class = centerbox><div class = fixation>+</div></div>","response":null,"trial_id":"test_ITI","ITIParams":null,"block_num":0,"exp_stage":"test","choices":["b","y","g","r","e"],"trial_type":"html-keyboard-response","trial_index":122,"time_elapsed":2689707,"internal_node_id":"0.0-6.0-113.0","trial_duration":1072.0875976035984,"stimulus_duration":1072.0875976035984},{"rt":746,"response":"y","trial_id":"test_trial","exp_stage":"test","trial_duration":1500,"stimulus_duration":1000,"choices":["b","y","g","r","e"],"trial_type":"poldracklab-stop-signal","trial_index":123,"time_elapsed":2691209,"internal_node_id":"0.0-6.0-114.0","response_ends_trial":false,"stimulus":"<div class = centerbox><div class = cue-text><img class = center src='/static/experiments/stop_signal_rdoc__fmri/images/circle.png'></img></div></div>","SS_stimulus":"<img class = center src='/static/experiments/stop_signal_rdoc__fmri/images/stopSignal.png'></img>","SS_trial_type":"go","SS_duration":500,"SSD":550,"stim":"circle","correct_response":"g","current_trial":56,"condition":"go","block_num":0,"correct_trial":0},{"rt":null,"stimulus":"<div class = centerbox><div class = fixation>+</div></div>","response":null,"trial_id":"test_ITI","ITIParams":null,"block_num":0,"exp_stage":"test","choices":["b","y","g","r","e"],"trial_type":"html-keyboard-response","trial_index":124,"time_elapsed":2691795,"internal_node_id":"0.0-6.0-115.0","trial_duration":580.9258917335001,"stimulus_duration":580.9258917335001},{"rt":770,"response":"y","trial_id":"test_trial","exp_stage":"test","trial_duration":1500,"stimulus_duration":1000,"choices":["b","y","g","r","e"],"trial_type":"poldracklab-stop-signal","trial_index":125,"time_elapsed":2693298,"internal_node_id":"0.0-6.0-116.0","response_ends_trial":false,"stimulus":"<div class = centerbox><div class = cue-text><img class = center src='/static/experiments/stop_signal_rdoc__fmri/images/circle.png'></img></div></div>","SS_stimulus":"<img class = center src='/static/experiments/stop_signal_rdoc__fmri/images/stopSignal.png'></img>","SS_trial_type":"go","SS_duration":500,"SSD":550,"stim":"circle","correct_response":"g","current_trial":57,"condition":"go","block_num":0,"correct_trial":0},{"rt":null,"stimulus":"<div class = centerbox><div class = fixation>+</div></div>","response":null,"trial_id":"test_ITI","ITIParams":null,"block_num":0,"exp_stage":"test","choices":["b","y","g","r","e"],"trial_type":"html-keyboard-response","trial_index":126,"time_elapsed":2694015,"internal_node_id":"0.0-6.0-117.0","trial_duration":713.1721070767867,"stimulus_duration":713.1721070767867},{"rt":695,"response":"y","trial_id":"test_trial","exp_stage":"test","trial_duration":1500,"stimulus_duration":1000,"choices":["b","y","g","r","e"],"trial_type":"poldracklab-stop-signal","trial_index":127,"time_elapsed":2695518,"internal_node_id":"0.0-6.0-118.0","response_ends_trial":false,"stimulus":"<div class = centerbox><div class = cue-text><img class = center src='/static/experiments/stop_signal_rdoc__fmri/images/circle.png'></img></div></div>","SS_stimulus":"<img class = center src='/static/experiments/stop_signal_rdoc__fmri/images/stopSignal.png'></img>","SS_trial_type":"go","SS_duration":500,"SSD":550,"stim":"circle","correct_response":"g","current_trial":58,"condition":"go","block_num":0,"correct_trial":0},{"rt":null,"stimulus":"<div class = centerbox><div class = fixation>+</div></div>","response":null,"trial_id":"test_ITI","ITIParams":null,"block_num":0,"exp_stage":"test","choices":["b","y","g","r","e"],"trial_type":"html-keyboard-response","trial_index":128,"time_elapsed":2696052,"internal_node_id":"0.0-6.0-119.0","trial_duration":529.7540022467047,"stimulus_duration":529.7540022467047},{"rt":634,"response":"y","trial_id":"test_trial","exp_stage":"test","trial_duration":1500,"stimulus_duration":1000,"choices":["b","y","g","r","e"],"trial_type":"poldracklab-stop-signal","trial_index":129,"time_elapsed":2697555,"internal_node_id":"0.0-6.0-120.0","response_ends_trial":false,"stimulus":"<div class = centerbox><div class = cue-text><img class = center src='/static/experiments/stop_signal_rdoc__fmri/images/circle.png'></img></div></div>","SS_stimulus":"<img class = center src='/static/experiments/stop_signal_rdoc__fmri/images/stopSignal.png'></img>","SS_trial_type":"go","SS_duration":500,"SSD":550,"stim":"circle","correct_response":"g","current_trial":59,"condition":"go","block_num":0,"correct_trial":0},{"rt":null,"stimulus":"<div class = centerbox><div class = fixation>+</div></div>","response":null,"trial_id":"test_ITI","ITIParams":null,"block_num":0,"exp_stage":"test","choices":["b","y","g","r","e"],"trial_type":"html-keyboard-response","trial_index":130,"time_elapsed":2698087,"internal_node_id":"0.0-6.0-121.0","trial_duration":526.2782839252509,"stimulus_duration":526.2782839252509},{"rt":683,"response":"g","trial_id":"test_trial","exp_stage":"test","trial_duration":1500,"stimulus_duration":1000,"choices":["b","y","g","r","e"],"trial_type":"poldracklab-stop-signal","trial_index":131,"time_elapsed":2699592,"internal_node_id":"0.0-6.0-122.0","response_ends_trial":false,"stimulus":"<div class = centerbox><div class = cue-text><img class = center src='/static/experiments/stop_signal_rdoc__fmri/images/square.png'></img></div></div>","SS_stimulus":"<img class = center src='/static/experiments/stop_signal_rdoc__fmri/images/stopSignal.png'></img>","SS_trial_type":"go","SS_duration":500,"SSD":550,"stim":"square","correct_response":"y","current_trial":60,"condition":"go","block_num":0,"correct_trial":0},{"rt":null,"stimulus":"<div class = centerbox><div class = fixation>+</div></div>","response":null,"trial_id":"test_long_fixation","exp_stage":"test","trial_duration":6000,"stimulus_duration":6000,"block_num":1,"choices":["b","y","g","r","e"],"trial_type":"html-keyboard-response","trial_index":132,"time_elapsed":2705600,"internal_node_id":"0.0-6.1-0.1-0.1"},{"rt":null,"stimulus":"<div class = bigbox><div class = picture_box><p class = block-text>\n    <div class=\"centerbox\"><p class=block-text>Completed 1 of 3 blocks.</p>\n        <p class=\"block-text\">Your accuracy was low.</p>\n        \n  <ul style=\"text-align:left;\">\n    <li>Square: Index</li>\n    <li>Circle: Middle</li>\n    <li>Star: Do not respond</li>\n  </ul>\n</div>\n    </font></p></div></div>","response":null,"trial_id":"test_feedback","exp_stage":"test","trial_duration":4000,"block_num":1,"trial_type":"html-keyboard-response","trial_index":133,"time_elapsed":2709606,"internal_node_id":"0.0-6.1-1.1-0.1","block_level_feedback":{"accuracy":{"value":0,"text":"\n        <p class=\"block-text\">Your accuracy was low.</p>\n        \n  <ul style=\"text-align:left;\">\n    <li>Square: Index</li>\n    <li>Circle: Middle</li>\n    <li>Star: Do not respond</li>\n  </ul>\n"}}},{"rt":null,"stimulus":"<div class = centerbox><div class = fixation>+</div></div>","response":null,"trial_id":"test_long_fixation","exp_stage":"test","trial_duration":6000,"stimulus_duration":6000,"block_num":1,"choices":["b","y","g","r","e"],"trial_type":"html-keyboard-response","trial_index":134,"time_elapsed":2715611,"internal_node_id":"0.0-6.1-2.1-0.1"},{"rt":null,"stimulus":"<div class = centerbox><div class = fixation>+</div></div>","response":null,"trial_id":"test_ITI","ITIParams":null,"block_num":1,"exp_stage":"test","choices":["b","y","g","r","e"],"trial_type":"html-keyboard-response","trial_index":135,"time_elapsed":2716259,"internal_node_id":"0.0-6.1-3.1","trial_duration":642.1141499344856,"stimulus_duration":642.1141499344856},{"rt":517,"response":"y","trial_id":"test_trial","exp_stage":"test","trial_duration":1500,"stimulus_duration":1000,"choices":["b","y","g","r","e"],"trial_type":"poldracklab-stop-signal","trial_index":136,"time_elapsed":2717764,"internal_node_id":"0.0-6.1-4.1","response_ends_trial":false,"stimulus":"<div class = centerbox><div class = cue-text><img class = center src='/static/experiments/stop_signal_rdoc__fmri/images/square.png'></img></div></div>","SS_stimulus":"<img class = center src='/static/experiments/stop_signal_rdoc__fmri/images/stopSignal.png'></img>","SS_trial_type":"go","SS_duration":500,"SSD":550,"stim":"square","correct_response":"y","current_trial":1,"condition":"go","block_num":1,"correct_trial":1},{"rt":null,"stimulus":"<div class = centerbox><div class = fixation>+</div></div>","response":null,"trial_id":"test_ITI","ITIParams":null,"block_num":1,"exp_stage":"test","choices":["b","y","g","r","e"],"trial_type":"html-keyboard-response","trial_index":137,"time_elapsed":2719140,"internal_node_id":"0.0-6.1-5.1","trial_duration":1372.4105389105432,"stimulus_duration":1372.4105389105432},{"rt":475,"response":"y","trial_id":"test_trial","exp_stage":"test","trial_duration":1500,"stimulus_duration":1000,"choices":["b","y","g","r","e"],"trial_type":"poldracklab-stop-signal","trial_index":138,"time_elapsed":2720643,"internal_node_id":"0.0-6.1-6.1","response_ends_trial":false,"stimulus":"<div class = centerbox><div class = cue-text><img class = center src='/static/experiments/stop_signal_rdoc__fmri/images/square.png'></img></div></div>","SS_stimulus":"<img class = center src='/static/experiments/stop_signal_rdoc__fmri/images/stopSignal.png'></img>","SS_trial_type":"go","SS_duration":500,"SSD":550,"stim":"square","correct_response":"y","current_trial":2,"condition":"go","block_num":1,"correct_trial":1},{"rt":null,"stimulus":"<div class = centerbox><div class = fixation>+</div></div>","response":null,"trial_id":"test_ITI","ITIParams":null,"block_num":1,"exp_stage":"test","choices":["b","y","g","r","e"],"trial_type":"html-keyboard-response","trial_index":139,"time_elapsed":2722798,"internal_node_id":"0.0-6.1-7.1","trial_duration":2150.722930066536,"stimulus_duration":2150.722930066536},{"rt":437,"response":"g","trial_id":"test_trial","exp_stage":"test","trial_duration":1500,"stimulus_duration":1000,"choices":["b","y","g","r","e"],"trial_type":"poldracklab-stop-signal","trial_index":140,"time_elapsed":2724304,"internal_node_id":"0.0-6.1-8.1","response_ends_trial":false,"stimulus":"<div class = centerbox><div class = cue-text><img class = center src='/static/experiments/stop_signal_rdoc__fmri/images/circle.png'></img></div></div>","SS_stimulus":"<img class = center src='/static/experiments/stop_signal_rdoc__fmri/images/stopSignal.png'></img>","SS_trial_type":"go","SS_duration":500,"SSD":550,"stim":"circle","correct_response":"g","current_trial":3,"condition":"go","block_num":1,"correct_trial":1},{"rt":null,"stimulus":"<div class = centerbox><div class = fixation>+</div></div>","response":null,"trial_id":"test_ITI","ITIParams":null,"block_num":1,"exp_stage":"test","choices":["b","y","g","r","e"],"trial_type":"html-keyboard-response","trial_index":141,"time_elapsed":2724819,"internal_node_id":"0.0-6.1-9.1","trial_duration":509.0556653125873,"stimulus_duration":509.0556653125873},{"rt":446,"response":"y","trial_id":"test_trial","exp_stage":"test","trial_duration":1500,"stimulus_duration":1000,"choices":["b","y","g","r","e"],"trial_type":"poldracklab-stop-signal","trial_index":142,"time_elapsed":2726325,"internal_node_id":"0.0-6.1-10.1","response_ends_trial":false,"stimulus":"<div class = centerbox><div class = cue-text><img class = center src='/static/experiments/stop_signal_rdoc__fmri/images/square.png'></img></div></div>","SS_stimulus":"<img class = center src='/static/experiments/stop_signal_rdoc__fmri/images/stopSignal.png'></img>","SS_trial_type":"go","SS_duration":500,"SSD":550,"stim":"square","correct_response":"y","current_trial":4,"condition":"go","block_num":1,"correct_trial":1},{"rt":null,"stimulus":"<div class = centerbox><div class = fixation>+</div></div>","response":null,"trial_id":"test_ITI","ITIParams":null,"block_num":1,"exp_stage":"test","choices":["b","y","g","r","e"],"trial_type":"html-keyboard-response","trial_index":143,"time_elapsed":2727140,"internal_node_id":"0.0-6.1-11.1","trial_duration":813.3696031705426,"stimulus_duration":813.3696031705426},{"rt":544,"response":"y","trial_id":"test_trial","exp_stage":"test","trial_duration":1500,"stimulus_duration":1000,"choices":["b","y","g","r","e"],"trial_type":"poldracklab-stop-signal","trial_index":144,"time_elapsed":2728647,"internal_node_id":"0.0-6.1-12.1","response_ends_trial":false,"stimulus":"<div class = centerbox><div class = cue-text><img class = center src='/static/experiments/stop_signal_rdoc__fmri/images/square.png'></img></div></div>","SS_stimulus":"<img class = center src='/static/experiments/stop_signal_rdoc__fmri/images/stopSignal.png'></img>","SS_trial_type":"go","SS_duration":500,"SSD":550,"stim":"square","correct_response":"y","current_trial":5,"condition":"go","block_num":1,"correct_trial":1},{"rt":null,"stimulus":"<div class = centerbox><div class = fixation>+</div></div>","response":null,"trial_id":"test_ITI","ITIParams":null,"block_num":1,"exp_stage":"test","choices":["b","y","g","r","e"],"trial_type":"html-keyboard-response","trial_index":145,"time_elapsed":2729219,"internal_node_id":"0.0-6.1-13.1","trial_duration":567.9578924142561,"stimulus_duration":567.9578924142561},{"rt":550,"response":"g","trial_id":"test_trial","exp_stage":"test","trial_duration":1500,"stimulus_duration":1000,"choices":["b","y","g","r","e"],"trial_type":"poldracklab-stop-signal","trial_index":146,"time_elapsed":2730723,"internal_node_id":"0.0-6.1-14.1","response_ends_trial":false,"stimulus":"<div class = centerbox><div class = cue-text><img class = center src='/static/experiments/stop_signal_rdoc__fmri/images/circle.png'></img></div></div>","SS_stimulus":"<img class = center src='/static/experiments/stop_signal_rdoc__fmri/images/stopSignal.png'></img>","SS_trial_type":"stop","SS_duration":500,"SSD":550,"stim":"circle","correct_response":"g","current_trial":6,"condition":"stop","block_num":1,"correct_trial":0},{"rt":null,"stimulus":"<div class = centerbox><div class = fixation>+</div></div>","response":null,"trial_id":"test_ITI","ITIParams":null,"block_num":1,"exp_stage":"test","choices":["b","y","g","r","e"],"trial_type":"html-keyboard-response","trial_index":147,"time_elapsed":2731449,"internal_node_id":"0.0-6.1-15.1","trial_duration":721.3149372173859,"stimulus_duration":721.3149372173859},{"rt":610,"response":"y","trial_id":"test_trial","exp_stage":"test","trial_duration":1500,"stimulus_duration":1000,"choices":["b","y","g","r","e"],"trial_type":"poldracklab-stop-signal","trial_index":148,"time_elapsed":2732955,"internal_node_id":"0.0-6.1-16.1","response_ends_trial":false,"stimulus":"<div class = centerbox><div class = cue-text><img class = center src='/static/experiments/stop_signal_rdoc__fmri/images/square.png'></img></div></div>","SS_stimulus":"<img class = center src='/static/experiments/stop_signal_rdoc__fmri/images/stopSignal.png'></img>","SS_trial_type":"go","SS_duration":500,"SSD":500,"stim":"square","correct_response":"y","current_trial":7,"condition":"go","block_num":1,"correct_trial":1},{"rt":null,"stimulus":"<div class = centerbox><div class = fixation>+</div></div>","response":null,"trial_id":"test_ITI","ITIParams":null,"block_num":1,"exp_stage":"test","choices":["b","y","g","r","e"],"trial_type":"html-keyboard-response","trial_index":149,"time_elapsed":2733498,"internal_node_id":"0.0-6.1-17.1","trial_duration":538.3774095943465,"stimulus_duration":538.3774095943465},{"rt":608,"response":"y","trial_id":"test_trial","exp_stage":"test","trial_duration":1500,"stimulus_duration":1000,"choices":["b","y","g","r","e"],"trial_type":"poldracklab-stop-signal","trial_index":150,"time_elapsed":2735004,"internal_node_id":"0.0-6.1-18.1","response_ends_trial":false,"stimulus":"<div class = centerbox><div class = cue-text><img class = center src='/static/experiments/stop_signal_rdoc__fmri/images/square.png'></img></div></div>","SS_stimulus":"<img class = center src='/static/experiments/stop_signal_rdoc__fmri/images/stopSignal.png'></img>","SS_trial_type":"go","SS_duration":500,"SSD":500,"stim":"square","correct_response":"y","current_trial":8,"condition":"go","block_num":1,"correct_trial":1},{"rt":null,"stimulus":"<div class = centerbox><div class = fixation>+</div></div>","response":null,"trial_id":"test_ITI","ITIParams":null,"block_num":1,"exp_stage":"test","choices":["b","y","g","r","e"],"trial_type":"html-keyboard-response","trial_index":151,"time_elapsed":2735549,"internal_node_id":"0.0-6.1-19.1","trial_duration":538.9510004992815,"stimulus_duration":538.9510004992815},{"rt":608,"response":"g","trial_id":"test_trial","exp_stage":"test","trial_duration":1500,"stimulus_duration":1000,"choices":["b","y","g","r","e"],"trial_type":"poldracklab-stop-signal","trial_index":152,"time_elapsed":2737054,"internal_node_id":"0.0-6.1-20.1","response_ends_trial":false,"stimulus":"<div class = centerbox><div class = cue-text><img class = center src='/static/experiments/stop_signal_rdoc__fmri/images/circle.png'></img></div></div>","SS_stimulus":"<img class = center src='/static/experiments/stop_signal_rdoc__fmri/images/stopSignal.png'></img>","SS_trial_type":"stop","SS_duration":500,"SSD":500,"stim":"circle","correct_response":"g","current_trial":9,"condition":"stop","block_num":1,"correct_trial":0},{"rt":null,"stimulus":"<div class = centerbox><div class = fixation>+</div></div>","response":null,"trial_id":"test_ITI","ITIParams":null,"block_num":1,"exp_stage":"test","choices":["b","y","g","r","e"],"trial_type":"html-keyboard-response","trial_index":153,"time_elapsed":2737883,"internal_node_id":"0.0-6.1-21.1","trial_duration":823.687077501603,"stimulus_duration":823.687077501603},{"rt":669,"response":"g","trial_id":"test_trial","exp_stage":"test","trial_duration":1500,"stimulus_duration":1000,"choices":["b","y","g","r","e"],"trial_type":"poldracklab-stop-signal","trial_index":154,"time_elapsed":2739387,"internal_node_id":"0.0-6.1-22.1","response_ends_trial":false,"stimulus":"<div class = centerbox><div class = cue-text><img class = center src='/static/experiments/stop_signal_rdoc__fmri/images/circle.png'></img></div></div>","SS_stimulus":"<img class = center src='/static/experiments/stop_signal_rdoc__fmri/images/stopSignal.png'></img>","SS_trial_type":"go","SS_duration":500,"SSD":450,"stim":"circle","correct_response":"g","current_trial":10,"condition":"go","block_num":1,"correct_trial":1},{"rt":null,"stimulus":"<div class = centerbox><div class = fixation>+</div></div>","response":null,"trial_id":"test_ITI","ITIParams":null,"block_num":1,"exp_stage":"test","choices":["b","y","g","r","e"],"trial_type":"html-keyboard-response","trial_index":155,"time_elapsed":2739967,"internal_node_id":"0.0-6.1-23.1","trial_duration":575.788285903684,"stimulus_duration":575.788285903684},{"rt":665,"response":"g","trial_id":"test_trial","exp_stage":"test","trial_duration":1500,"stimulus_duration":1000,"choices":["b","y","g","r","e"],"trial_type":"poldracklab-stop-signal","trial_index":156,"time_elapsed":2741473,"internal_node_id":"0.0-6.1-24.1","response_ends_trial":false,"stimulus":"<div class = centerbox><div class = cue-text><img class = center src='/static/experiments/stop_signal_rdoc__fmri/images/circle.png'></img></div></div>","SS_stimulus":"<img class = center src='/static/experiments/stop_signal_rdoc__fmri/images/stopSignal.png'></img>","SS_trial_type":"stop","SS_duration":500,"SSD":450,"stim":"circle","correct_response":"g","current_trial":11,"condition":"stop","block_num":1,"correct_trial":0},{"rt":null,"stimulus":"<div class = centerbox><div class = fixation>+</div></div>","response":null,"trial_id":"test_ITI","ITIParams":null,"block_num":1,"exp_stage":"test","choices":["b","y","g","r","e"],"trial_type":"html-keyboard-response","trial_index":157,"time_elapsed":2742113,"internal_node_id":"0.0-6.1-25.1","trial_duration":638.4269929186246,"stimulus_duration":638.4269929186246},{"rt":618,"response":"y","trial_id":"test_trial","exp_stage":"test","trial_duration":1500,"stimulus_duration":1000,"choices":["b","y","g","r","e"],"trial_type":"poldracklab-stop-signal","trial_index":158,"time_elapsed":2743618,"internal_node_id":"0.0-6.1-26.1","response_ends_trial":false,"stimulus":"<div class = centerbox><div class = cue-text><img class = center src='/static/experiments/stop_signal_rdoc__fmri/images/square.png'></img></div></div>","SS_stimulus":"<img class = center src='/static/experiments/stop_signal_rdoc__fmri/images/stopSignal.png'></img>","SS_trial_type":"go","SS_duration":500,"SSD":400,"stim":"square","correct_response":"y","current_trial":12,"condition":"go","block_num":1,"correct_trial":1},{"rt":null,"stimulus":"<div class = centerbox><div class = fixation>+</div></div>","response":null,"trial_id":"test_ITI","ITIParams":null,"block_num":1,"exp_stage":"test","choices":["b","y","g","r","e"],"trial_type":"html-keyboard-response","trial_index":159,"time_elapsed":2744490,"internal_node_id":"0.0-6.1-27.1","trial_duration":868.4769772883953,"stimulus_duration":868.4769772883953},{"rt":null,"response":null,"trial_id":"test_trial","exp_stage":"test","trial_duration":1500,"stimulus_duration":1000,"choices":["b","y","g","r","e"],"trial_type":"poldracklab-stop-signal","trial_index":160,"time_elapsed":2745996,"internal_node_id":"0.0-6.1-28.1","response_ends_trial":false,"stimulus":"<div class = centerbox><div class = cue-text><img class = center src='/static/experiments/stop_signal_rdoc__fmri/images/square.png'></img></div></div>","SS_stimulus":"<img class = center src='/static/experiments/stop_signal_rdoc__fmri/images/stopSignal.png'></img>","SS_trial_type":"stop","SS_duration":500,"SSD":400,"stim":"square","correct_response":"y","current_trial":13,"condition":"stop","block_num":1,"correct_trial":1},{"rt":null,"stimulus":"<div class = centerbox><div class = fixation>+</div></div>","response":null,"trial_id":"test_ITI","ITIParams":null,"block_num":1,"exp_stage":"test","choices":["b","y","g","r","e"],"trial_type":"html-keyboard-response","trial_index":161,"time_elapsed":2747165,"internal_node_id":"0.0-6.1-29.1","trial_duration":1163.0953639543122,"stimulus_duration":1163.0953639543122},{"rt":690,"response":"y","trial_id":"test_trial","exp_stage":"test","trial_duration":1500,"stimulus_duration":1000,"choices":["b","y","g","r","e"],"trial_type":"poldracklab-stop-signal","trial_index":162,"time_elapsed":2748671,"internal_node_id":"0.0-6.1-30.1","response_ends_trial":false,"stimulus":"<div class = centerbox><div class = cue-text><img class = center src='/static/experiments/stop_signal_rdoc__fmri/images/square.png'></img></div></div>","SS_stimulus":"<img class = center src='/static/experiments/stop_signal_rdoc__fmri/images/stopSignal.png'></img>","SS_trial_type":"stop","SS_duration":500,"SSD":450,"stim":"square","correct_response":"y","current_trial":14,"condition":"stop","block_num":1,"correct_trial":0},{"rt":null,"stimulus":"<div class = centerbox><div class = fixation>+</div></div>","response":null,"trial_id":"test_ITI","ITIParams":null,"block_num":1,"exp_stage":"test","choices":["b","y","g","r","e"],"trial_type":"html-keyboard-response","trial_index":163,"time_elapsed":2749203,"internal_node_id":"0.0-6.1-31.1","trial_duration":528.0544426707934,"stimulus_duration":528.0544426707934},{"rt":null,"response":null,"trial_id":"test_trial","exp_stage":"test","trial_duration":1500,"stimulus_duration":1000,"choices":["b","y","g","r","e"],"trial_type":"poldracklab-stop-signal","trial_index":164,"time_elapsed":2750709,"internal_node_id":"0.0-6.1-32.1","response_ends_trial":false,"stimulus":"<div class = centerbox><div class = cue-text><img class = center src='/static/experiments/stop_signal_rdoc__fmri/images/square.png'></img></div></div>","SS_stimulus":"<img class = center src='/static/experiments/stop_signal_rdoc__fmri/images/stopSignal.png'></img>","SS_trial_type":"stop","SS_duration":500,"SSD":400,"stim":"square","correct_response":"y","current_trial":15,"condition":"stop","block_num":1,"correct_trial":1},{"rt":null,"stimulus":"<div class = centerbox><div class = fixation>+</div></div>","response":null,"trial_id":"test_ITI","ITIParams":null,"block_num":1,"exp_stage":"test","choices":["b","y","g","r","e"],"trial_type":"html-keyboard-response","trial_index":165,"time_elapsed":2751716,"internal_node_id":"0.0-6.1-33.1","trial_duration":1002.0805225886136,"stimulus_duration":1002.0805225886136},{"rt":637,"response":"g","trial_id":"test_trial","exp_stage":"test","trial_duration":1500,"stimulus_duration":1000,"choices":["b","y","g","r","e"],"trial_type":"poldracklab-stop-signal","trial_index":166,"time_elapsed":2753228,"internal_node_id":"0.0-6.1-34.1","response_ends_trial":false,"stimulus":"<div class = centerbox><div class = cue-text><img class = center src='/static/experiments/stop_signal_rdoc__fmri/images/circle.png'></img></div></div>","SS_stimulus":"<img class = center src='/static/experiments/stop_signal_rdoc__fmri/images/stopSignal.png'></img>","SS_trial_type":"go","SS_duration":500,"SSD":450,"stim":"circle","correct_response":"g","current_trial":16,"condition":"go","block_num":1,"correct_trial":1},{"rt":null,"stimulus":"<div class = centerbox><div class = fixation>+</div></div>","response":null,"trial_id":"test_ITI","ITIParams":null,"block_num":1,"exp_stage":"test","choices":["b","y","g","r","e"],"trial_type":"html-keyboard-response","trial_index":167,"time_elapsed":2755236,"internal_node_id":"0.0-6.1-35.1","trial_duration":1997.89100287893,"stimulus_duration":1997.89100287893},{"rt":681,"response":"y","trial_id":"test_trial","exp_stage":"test","trial_duration":1500,"stimulus_duration":1000,"choices":["b","y","g","r","e"],"trial_type":"poldracklab-stop-signal","trial_index":168,"time_elapsed":2756739,"internal_node_id":"0.0-6.1-36.1","response_ends_trial":false,"stimulus":"<div class = centerbox><div class = cue-text><img class = center src='/static/experiments/stop_signal_rdoc__fmri/images/square.png'></img></div></div>","SS_stimulus":"<img class = center src='/static/experiments/stop_signal_rdoc__fmri/images/stopSignal.png'></img>","SS_trial_type":"go","SS_duration":500,"SSD":450,"stim":"square","correct_response":"y","current_trial":17,"condition":"go","block_num":1,"correct_trial":1},{"rt":null,"stimulus":"<div class = centerbox><div class = fixation>+</div></div>","response":null,"trial_id":"test_ITI","ITIParams":null,"block_num":1,"exp_stage":"test","choices":["b","y","g","r","e"],"trial_type":"html-keyboard-response","trial_index":169,"time_elapsed":2757713,"internal_node_id":"0.0-6.1-37.1","trial_duration":971.4867559461311,"stimulus_duration":971.4867559461311},{"rt":730,"response":"y","trial_id":"test_trial","exp_stage":"test","trial_duration":1500,"stimulus_duration":1000,"choices":["b","y","g","r","e"],"trial_type":"poldracklab-stop-signal","trial_index":170,"time_elapsed":2759276,"internal_node_id":"0.0-6.1-38.1","response_ends_trial":false,"stimulus":"<div class = centerbox><div class = cue-text><img class = center src='/static/experiments/stop_signal_rdoc__fmri/images/square.png'></img></div></div>","SS_stimulus":"<img class = center src='/static/experiments/stop_signal_rdoc__fmri/images/stopSignal.png'></img>","SS_trial_type":"go","SS_duration":500,"SSD":450,"stim":"square","correct_response":"y","current_trial":18,"condition":"go","block_num":1,"correct_trial":1},{"rt":null,"stimulus":"<div class = centerbox><div class = fixation>+</div></div>","response":null,"trial_id":"test_ITI","ITIParams":null,"block_num":1,"exp_stage":"test","choices":["b","y","g","r","e"],"trial_type":"html-keyboard-response","trial_index":171,"time_elapsed":2759924,"internal_node_id":"0.0-6.1-39.1","trial_duration":642.3516997193985,"stimulus_duration":642.3516997193985},{"rt":787,"response":"y","trial_id":"test_trial","exp_stage":"test","trial_duration":1500,"stimulus_duration":1000,"choices":["b","y","g","r","e"],"trial_type":"poldracklab-stop-signal","trial_index":172,"time_elapsed":2761430,"internal_node_id":"0.0-6.1-40.1","response_ends_trial":false,"stimulus":"<div class = centerbox><div class = cue-text><img class = center src='/static/experiments/stop_signal_rdoc__fmri/images/square.png'></img></div></div>","SS_stimulus":"<img class = center src='/static/experiments/stop_signal_rdoc__fmri/images/stopSignal.png'></img>","SS_trial_type":"go","SS_duration":500,"SSD":450,"stim":"square","correct_response":"y","current_trial":19,"condition":"go","block_num":1,"correct_trial":1},{"rt":null,"stimulus":"<div class = centerbox><div class = fixation>+</div></div>","response":null,"trial_id":"test_ITI","ITIParams":null,"block_num":1,"exp_stage":"test","choices":["b","y","g","r","e"],"trial_type":"html-keyboard-response","trial_index":173,"time_elapsed":2761974,"internal_node_id":"0.0-6.1-41.1","trial_duration":540.221162270683,"stimulus_duration":540.221162270683},{"rt":827,"response":"g","trial_id":"test_trial","exp_stage":"test","trial_duration":1500,"stimulus_duration":1000,"choices":["b","y","g","r","e"],"trial_type":"poldracklab-stop-signal","trial_index":174,"time_elapsed":2763480,"internal_node_id":"0.0-6.1-42.1","response_ends_trial":false,"stimulus":"<div class = centerbox><div class = cue-text><img class = center src='/static/experiments/stop_signal_rdoc__fmri/images/circle.png'></img></div></div>","SS_stimulus":"<img class = center src='/static/experiments/stop_signal_rdoc__fmri/images/stopSignal.png'></img>","SS_trial_type":"go","SS_duration":500,"SSD":450,"stim":"circle","correct_response":"g","current_trial":20,"condition":"go","block_num":1,"correct_trial":1},{"rt":null,"stimulus":"<div class = centerbox><div class = fixation>+</div></div>","response":null,"trial_id":"test_ITI","ITIParams":null,"block_num":1,"exp_stage":"test","choices":["b","y","g","r","e"],"trial_type":"html-keyboard-response","trial_index":175,"time_elapsed":2764082,"internal_node_id":"0.0-6.1-43.1","trial_duration":599.4650551118355,"stimulus_duration":599.4650551118355},{"rt":458,"response":"y","trial_id":"test_trial","exp_stage":"test","trial_duration":1500,"stimulus_duration":1000,"choices":["b","y","g","r","e"],"trial_type":"poldracklab-stop-signal","trial_index":176,"time_elapsed":2765604,"internal_node_id":"0.0-6.1-44.1","response_ends_trial":false,"stimulus":"<div class = centerbox><div class = cue-text><img class = center src='/static/experiments/stop_signal_rdoc__fmri/images/square.png'></img></div></div>","SS_stimulus":"<img class = center src='/static/experiments/stop_signal_rdoc__fmri/images/stopSignal.png'></img>","SS_trial_type":"go","SS_duration":500,"SSD":450,"stim":"square","correct_response":"y","current_trial":21,"condition":"go","block_num":1,"correct_trial":1},{"rt":null,"stimulus":"<div class = centerbox><div class = fixation>+</div></div>","response":null,"trial_id":"test_ITI","ITIParams":null,"block_num":1,"exp_stage":"test","choices":["b","y","g","r","e"],"trial_type":"html-keyboard-response","trial_index":177,"time_elapsed":2767684,"internal_node_id":"0.0-6.1-45.1","trial_duration":2074.145556968546,"stimulus_duration":2074.145556968546},{"rt":null,"response":null,"trial_id":"test_trial","exp_stage":"test","trial_duration":1500,"stimulus_duration":1000,"choices":["b","y","g","r","e"],"trial_type":"poldracklab-stop-signal","trial_index":178,"time_elapsed":2769190,"internal_node_id":"0.0-6.1-46.1","response_ends_trial":false,"stimulus":"<div class = centerbox><div class = cue-text><img class = center src='/static/experiments/stop_signal_rdoc__fmri/images/circle.png'></img></div></div>","SS_stimulus":"<img class = center src='/static/experiments/stop_signal_rdoc__fmri/images/stopSignal.png'></img>","SS_trial_type":"stop","SS_duration":500,"SSD":450,"stim":"circle","correct_response":"g","current_trial":22,"condition":"stop","block_num":1,"correct_trial":1},{"rt":null,"stimulus":"<div class = centerbox><div class = fixation>+</div></div>","response":null,"trial_id":"test_ITI","ITIParams":null,"block_num":1,"exp_stage":"test","choices":["b","y","g","r","e"],"trial_type":"html-keyboard-response","trial_index":179,"time_elapsed":2769885,"internal_node_id":"0.0-6.1-47.1","trial_duration":689.5681419852622,"stimulus_duration":689.5681419852622},{"rt":738,"response":"g","trial_id":"test_trial","exp_stage":"test","trial_duration":1500,"stimulus_duration":1000,"choices":["b","y","g","r","e"],"trial_type":"poldracklab-stop-signal","trial_index":180,"time_elapsed":2771389,"internal_node_id":"0.0-6.1-48.1","response_ends_trial":false,"stimulus":"<div class = centerbox><div class = cue-text><img class = center src='/static/experiments/stop_signal_rdoc__fmri/images/circle.png'></img></div></div>","SS_stimulus":"<img class = center src='/static/experiments/stop_signal_rdoc__fmri/images/stopSignal.png'></img>","SS_trial_type":"go","SS_duration":500,"SSD":500,"stim":"circle","correct_response":"g","current_trial":23,"condition":"go","block_num":1,"correct_trial":1},{"rt":null,"stimulus":"<div class = centerbox><div class = fixation>+</div></div>","response":null,"trial_id":"test_ITI","ITIParams":null,"block_num":1,"exp_stage":"test","choices":["b","y","g","r","e"],"trial_type":"html-keyboard-response","trial_index":181,"time_elapsed":2773387,"internal_node_id":"0.0-6.1-49.1","trial_duration":1977.868247920668,"stimulus_duration":1977.868247920668},{"rt":646,"response":"y","trial_id":"test_trial","exp_stage":"test","trial_duration":1500,"stimulus_duration":1000,"choices":["b","y","g","r","e"],"trial_type":"poldracklab-stop-signal","trial_index":182,"time_elapsed":2774892,"internal_node_id":"0.0-6.1-50.1","response_ends_trial":false,"stimulus":"<div class = centerbox><div class = cue-text><img class = center src='/static/experiments/stop_signal_rdoc__fmri/images/square.png'></img></div></div>","SS_stimulus":"<img class = center src='/static/experiments/stop_signal_rdoc__fmri/images/stopSignal.png'></img>","S