[{"rt":3592322,"response":{"P0_Q0":null,"design_perm":1},"accuracy":[],"trial_type":"survey","trial_index":0,"time_elapsed":3592322,"internal_node_id":"0.0-0.0","design_perm":1},{"success":true,"trial_type":"fullscreen","trial_index":1,"time_elapsed":3636106,"internal_node_id":"0.0-1.0"},{"rt":1087,"stimulus":"<div><h1>Please press the left button.</h1></div>","response":"g","trial_id":"check_left_button","trial_type":"html-keyboard-response","trial_index":2,"time_elapsed":3637198,"internal_node_id":"0.0-2.0-0.0"},{"rt":382,"stimulus":"<div><h1>Please press the right button.</h1></div>","response":"b","trial_id":"check_right_button","trial_type":"html-keyboard-response","trial_index":3,"time_elapsed":3638085,"internal_node_id":"0.0-2.0-1.0"},{"rt":885,"stimulus":"<div><h1>Please press the up button.</h1></div>","response":"r","trial_id":"check_up_button","trial_type":"html-keyboard-response","trial_index":4,"time_elapsed":3639471,"internal_node_id":"0.0-2.0-2.0"},{"rt":487,"stimulus":"<div><h1>Please press the down button.</h1></div>","response":"y","trial_id":"check_down_button","trial_type":"html-keyboard-response","trial_index":5,"time_elapsed":3640461,"internal_node_id":"0.0-2.0-3.0"},{"rt":27672,"stimulus":"<div><h1>Please press the middle button.</h1></div>","response":"e","trial_id":"check_middle_button","trial_type":"html-keyboard-response","trial_index":6,"time_elapsed":3668634,"internal_node_id":"0.0-2.0-4.0"},{"rt":27634,"stimulus":"<div class=\"bigbox\"><div class=\"picture_box\"><p class=\"block-text\">\n    <div class=\"centerbox\">\n      <p class=\"block-text\">\n        During this task, you will see a set of stars (****) followed by a 4x4 grid. This 4x4 grid will have one cell colored black. Try to remember the location of the black cell.\n      </p>\n      <p class=\"block-text\">\n        This sequence of a set of stars (****) and 4x4 grid will alternate four times. After the fourth time, a blank 4x4 grid will be presented.\n      </p>\n      <p class=\"block-text\">\n        On the blank 4x4 grid, use the <b>buttons</b> to navigate the grid and the <b>center button</b> to select the cells you think were colored black in the preceding 4 4x4 grids. Select them in the order they were shown.\n      </p>\n      <p class='block-text'>\n        It's important to be ready to respond promptly when the grid appears, as the screen will move on automatically after a limited time.\n      </p>\n    </div>\n  </p></div></div>","response":" ","trial_id":"practice_feedback","exp_stage":"practice","trial_duration":4000,"block_num":0,"trial_type":"html-keyboard-response","trial_index":7,"time_elapsed":3696774,"internal_node_id":"0.0-3.0-0.0","block_level_feedback":{}},{"rt":null,"stimulus":"<div class = centerbox><div class = fixation>****</div></div>","response":null,"trial_id":"practice_inter-stimulus","exp_stage":"practice","condition":"simple","trial_duration":2500,"stimulus_duration":2500,"block_num":0,"choices":["b","y","g","r","e"],"trial_type":"html-keyboard-response","trial_index":8,"time_elapsed":3699280,"internal_node_id":"0.0-3.0-1.0","correct_spatial_judgement_key":null},{"rt":null,"stimulus":"<div class=\"container\"><div class=\"box\"></div><div class=\"box\"></div><div class=\"box\"></div><div class=\"box\"></div><div class=\"box\"></div><div class=\"box\"></div><div class=\"box\"></div><div class=\"box\"></div><div class=\"box\"></div><div class=\"box active-box\"></div><div class=\"box\"></div><div class=\"box\"></div><div class=\"box\"></div><div class=\"box\"></div><div class=\"box\"></div><div class=\"box\"></div></div>","response":null,"trial_id":"practice_stim","exp_stage":"practice","condition":"simple","trial_duration":1000,"stimulus_duration":1000,"block_num":0,"choices":["b","y","g","r","e"],"trial_type":"html-keyboard-response","trial_index":9,"time_elapsed":3700287,"internal_node_id":"0.0-3.0-2.0","spatial_location":9},{"rt":null,"stimulus":"<div class = centerbox><div class = fixation>****</div></div>","response":null,"trial_id":"practice_inter-stimulus","exp_stage":"practice","condition":"simple","trial_duration":2500,"stimulus_duration":2500,"block_num":0,"choices":["b","y","g","r","e"],"trial_type":"html-keyboard-response","trial_index":10,"time_elapsed":3702792,"internal_node_id":"0.0-3.0-3.0","correct_spatial_judgement_key":null},{"rt":null,"stimulus":"<div class=\"container\"><div class=\"box\"></div><div class=\"box\"></div><div class=\"box\"></div><div class=\"box\"></div><div class=\"box\"></div><div class=\"box\"></div><div class=\"box active-box\"></div><div class=\"box\"></div><div class=\"box\"></div><div class=\"box\"></div><div class=\"box\"></div><div class=\"box\"></div><div class=\"box\"></div><div class=\"box\"></div><div class=\"box\"></div><div class=\"box\"></div></div>","response":null,"trial_id":"practice_stim","exp_stage":"practice","condition":"simple","trial_duration":1000,"stimulus_duration":1000,"block_num":0,"choices":["b","y","g","r","e"],"trial_type":"html-keyboard-response","trial_index":11,"time_elapsed":3703798,"internal_node_id":"0.0-3.0-4.0","spatial_location":6},{"rt":null,"stimulus":"<div class = centerbox><div class = fixation>****</div></div>","response":null,"trial_id":"practice_inter-stimulus","exp_stage":"practice","condition":"simple","trial_duration":2500,"stimulus_duration":2500,"block_num":0,"choices":["b","y","g","r","e"],"trial_type":"html-keyboard-response","trial_index":12,"time_elapsed":3706301,"internal_node_id":"0.0-3.0-5.0","correct_spatial_judgement_key":null},{"rt":null,"stimulus":"<div class=\"container\"><div class=\"box\"></div><div class=\"box\"></div><div class=\"box\"></div><div class=\"box\"></div><div class=\"box\"></div><div class=\"box\"></div><div class=\"box\"></div><div class=\"box\"></div><div class=\"box active-box\"></div><div class=\"box\"></div><div class=\"box\"></div><div class=\"box\"></div><div class=\"box\"></div><div class=\"box\"></div><div class=\"box\"></div><div class=\"box\"></div></div>","response":null,"trial_id":"practice_stim","exp_stage":"practice","condition":"simple","trial_duration":1000,"stimulus_duration":1000,"block_num":0,"choices":["b","y","g","r","e"],"trial_type":"html-keyboard-response","trial_index":13,"time_elapsed":3707307,"internal_node_id":"0.0-3.0-6.0","spatial_location":8},{"rt":null,"stimulus":"<div class = centerbox><div class = fixation>****</div></div>","response":null,"trial_id":"practice_inter-stimulus","exp_stage":"practice","condition":"simple","trial_duration":2500,"stimulus_duration":2500,"block_num":0,"choices":["b","y","g","r","e"],"trial_type":"html-keyboard-response","trial_index":14,"time_elapsed":3709813,"internal_node_id":"0.0-3.0-7.0","correct_spatial_judgement_key":null},{"rt":null,"stimulus":"<div class=\"container\"><div class=\"box\"></div><div class=\"box\"></div><div class=\"box active-box\"></div><div class=\"box\"></div><div class=\"box\"></div><div class=\"box\"></div><div class=\"box\"></div><div class=\"box\"></div><div class=\"box\"></div><div class=\"box\"></div><div class=\"box\"></div><div class=\"box\"></div><div class=\"box\"></div><div class=\"box\"></div><div class=\"box\"></div><div class=\"box\"></div></div>","response":null,"trial_id":"practice_stim","exp_stage":"practice","condition":"simple","trial_duration":1000,"stimulus_duration":1000,"block_num":0,"choices":["b","y","g","r","e"],"trial_type":"html-keyboard-response","trial_index":15,"time_elapsed":3710818,"internal_node_id":"0.0-3.0-8.0","spatial_location":2},{"rt":491,"stimulus":"<div class=\"container\"><div class=\"box\"></div><div class=\"box\"></div><div class=\"box\"></div><div class=\"box\"></div><div class=\"box\"></div><div class=\"box\"></div><div class=\"box\"></div><div class=\"box\"></div><div class=\"box\"></div><div class=\"box\"></div><div class=\"box response-active\"></div><div class=\"box\"></div><div class=\"box\"></div><div class=\"box\"></div><div class=\"box\"></div><div class=\"box\"></div></div>","response":"g","trial_id":"practice_trial","exp_stage":"practice","trial_duration":7000,"stimulus_duration":7000,"choices":["b","y","g","r","e"],"trial_type":"html-keyboard-response","trial_index":16,"time_elapsed":3717825,"internal_node_id":"0.0-3.0-9.0","valid_responses":[9,6,8,2],"extra_responses":null,"duplicate_responses":null,"duplicate_responses_timestamps":null,"extra_responses_timestamps":null,"correct_trial":1,"condition":"simple","block_num":0,"starting_cell":10,"correct_cell_order":[9,6,8,2],"valid_responses_timestamps":[859,2044,4039,5569],"moving_through_grid_timestamps":[491,1278,1648,2500,2772,3643,4413,4644,4983,5277],"cell_order_through_grid":[9,10,6,5,4,8,4,0,1,2]},{"rt":null,"stimulus":"<div class = centerbox><div class = fixation>+</div></div>","response":null,"trial_id":"practice_ITI","exp_stage":"practice","block_num":0,"condition":"simple","choices":["b","y","g","r","e"],"ITIParams":0.5,"trial_type":"html-keyboard-response","trial_index":17,"time_elapsed":3722832,"internal_node_id":"0.0-3.0-10.0","trial_duration":5000,"stimulus_duration":5000},{"rt":5296,"stimulus":"<div class=\"bigbox\"><div class=\"picture_box\"><p class=\"block-text\"><div class = centerbox><p class = block-text>Please take a short break.</p></div></p></div></div>","response":" ","trial_id":"test_feedback","exp_stage":"test","trial_duration":4000,"block_num":0,"trial_type":"html-keyboard-response","trial_index":18,"time_elapsed":3728129,"internal_node_id":"0.0-4.0","block_level_feedback":{}},{"rt":6293,"stimulus":"<div><h1>Scanner setup.</h1><h1>Stay as still as possible.</h1><h1>Do not swallow.</h1></div>","response":"enter","trial_id":"fmri_wait_block_initial","trial_type":"html-keyboard-response","trial_index":19,"time_elapsed":3734422,"internal_node_id":"0.0-5.0-0.0"},{"rt":1030,"stimulus":"<div><h1>Task about to start!</h1><h1>Stay as still as possible.</h1><h1>Do not swallow.</h1></div>","response":"t","trial_id":"fmri_wait_block_trigger_start","trial_type":"html-keyboard-response","trial_index":20,"time_elapsed":3735453,"internal_node_id":"0.0-5.0-1.0-0.0"},{"rt":null,"stimulus":"<div><h1>Task about to start!</h1><h1>Stay as still as possible.</h1><h1>Do not swallow.</h1></div>","response":null,"trial_id":"fmri_wait_block_trigger_end","block_duration":10430,"trial_type":"html-keyboard-response","trial_index":21,"time_elapsed":3746498,"internal_node_id":"0.0-5.0-1.0-1.0"},{"rt":null,"stimulus":"<div class = centerbox><div class = fixation>****</div></div>","response":null,"trial_id":"test_inter-stimulus","exp_stage":"test","condition":"simple","trial_duration":2500,"stimulus_duration":2500,"block_num":0,"choices":["b","y","g","r","e"],"trial_type":"html-keyboard-response","trial_index":22,"time_elapsed":3749001,"internal_node_id":"0.0-6.0-3.0","correct_spatial_judgement_key":null},{"rt":null,"stimulus":"<div class=\"container\"><div class=\"box\"></div><div class=\"box\"></div><div class=\"box\"></div><div class=\"box\"></div><div class=\"box\"></div><div class=\"box\"></div><div class=\"box\"></div><div class=\"box\"></div><div class=\"box\"></div><div class=\"box\"></div><div class=\"box\"></div><div class=\"box\"></div><div class=\"box\"></div><div class=\"box\"></div><div class=\"box\"></div><div class=\"box active-box\"></div></div>","response":null,"trial_id":"test_stim","exp_stage":"test","condition":"simple","trial_duration":1000,"stimulus_duration":1000,"block_num":0,"choices":["b","y","g","r","e"],"trial_type":"html-keyboard-response","trial_index":23,"time_elapsed":3750005,"internal_node_id":"0.0-6.0-4.0","spatial_location":15},{"rt":null,"stimulus":"<div class = centerbox><div class = fixation>****</div></div>","response":null,"trial_id":"test_inter-stimulus","exp_stage":"test","condition":"simple","trial_duration":2500,"stimulus_duration":2500,"block_num":0,"choices":["b","y","g","r","e"],"trial_type":"html-keyboard-response","trial_index":24,"time_elapsed":3752530,"internal_node_id":"0.0-6.0-5.0","correct_spatial_judgement_key":null},{"rt":null,"stimulus":"<div class=\"container\"><div class=\"box\"></div><div class=\"box\"></div><div class=\"box\"></div><div class=\"box\"></div><div class=\"box\"></div><div class=\"box\"></div><div class=\"box\"></div><div class=\"box\"></div><div class=\"box\"></div><div class=\"box active-box\"></div><div class=\"box\"></div><div class=\"box\"></div><div class=\"box\"></div><div class=\"box\"></div><div class=\"box\"></div><div class=\"box\"></div></div>","response":null,"trial_id":"test_stim","exp_stage":"test","condition":"simple","trial_duration":1000,"stimulus_duration":1000,"block_num":0,"choices":["b","y","g","r","e"],"trial_type":"html-keyboard-response","trial_index":25,"time_elapsed":3753533,"internal_node_id":"0.0-6.0-6.0","spatial_location":9},{"rt":null,"stimulus":"<div class = centerbox><div class = fixation>****</div></div>","response":null,"trial_id":"test_inter-stimulus","exp_stage":"test","condition":"simple","trial_duration":2500,"stimulus_duration":2500,"block_num":0,"choices":["b","y","g","r","e"],"trial_type":"html-keyboard-response","trial_index":26,"time_elapsed":3756039,"internal_node_id":"0.0-6.0-7.0","correct_spatial_judgement_key":null},{"rt":null,"stimulus":"<div class=\"container\"><div class=\"box\"></div><div class=\"box\"></div><div class=\"box\"></div><div class=\"box\"></div><div class=\"box\"></div><div class=\"box\"></div><div class=\"box\"></div><div class=\"box\"></div><div class=\"box\"></div><div class=\"box\"></div><div class=\"box\"></div><div class=\"box active-box\"></div><div class=\"box\"></div><div class=\"box\"></div><div class=\"box\"></div><div class=\"box\"></div></div>","response":null,"trial_id":"test_stim","exp_stage":"test","condition":"simple","trial_duration":1000,"stimulus_duration":1000,"block_num":0,"choices":["b","y","g","r","e"],"trial_type":"html-keyboard-response","trial_index":27,"time_elapsed":3757042,"internal_node_id":"0.0-6.0-8.0","spatial_location":11},{"rt":null,"stimulus":"<div class = centerbox><div class = fixation>****</div></div>","response":null,"trial_id":"test_inter-stimulus","exp_stage":"test","condition":"simple","trial_duration":2500,"stimulus_duration":2500,"block_num":0,"choices":["b","y","g","r","e"],"trial_type":"html-keyboard-response","trial_index":28,"time_elapsed":3759549,"internal_node_id":"0.0-6.0-9.0","correct_spatial_judgement_key":null},{"rt":null,"stimulus":"<div class=\"container\"><div class=\"box\"></div><div class=\"box\"></div><div class=\"box\"></div><div class=\"box active-box\"></div><div class=\"box\"></div><div class=\"box\"></div><div class=\"box\"></div><div class=\"box\"></div><div class=\"box\"></div><div class=\"box\"></div><div class=\"box\"></div><div class=\"box\"></div><div class=\"box\"></div><div class=\"box\"></div><div class=\"box\"></div><div class=\"box\"></div></div>","response":null,"trial_id":"test_stim","exp_stage":"test","condition":"simple","trial_duration":1000,"stimulus_duration":1000,"block_num":0,"choices":["b","y","g","r","e"],"trial_type":"html-keyboard-response","trial_index":29,"time_elapsed":3760594,"internal_node_id":"0.0-6.0-10.0","spatial_location":3},{"rt":519,"stimulus":"<div class=\"container\"><div class=\"box\"></div><div class=\"box\"></div><div class=\"box response-active\"></div><div class=\"box\"></div><div class=\"box\"></div><div class=\"box\"></div><div class=\"box\"></div><div class=\"box\"></div><div class=\"box\"></div><div class=\"box\"></div><div class=\"box\"></div><div class=\"box\"></div><div class=\"box\"></div><div class=\"box\"></div><div class=\"box\"></div><div class=\"box\"></div></div>","response":"y","trial_id":"test_trial","exp_stage":"test","trial_duration":7000,"stimulus_duration":7000,"choices":["b","y","g","r","e"],"trial_type":"html-keyboard-response","trial_index":30,"time_elapsed":3767600,"internal_node_id":"0.0-6.0-11.0","valid_responses":[15,11,9,3],"extra_responses":null,"duplicate_responses":null,"duplicate_responses_timestamps":null,"extra_responses_timestamps":null,"correct_trial":0,"condition":"simple","block_num":0,"starting_cell":2,"correct_cell_order":[15,9,11,3],"valid_responses_timestamps":[2736,3645,4547,5979],"moving_through_grid_timestamps":[519,1684,1926,2374,3262,3989,4241,4855,5060,5381,5660],"cell_order_through_grid":[6,10,14,15,11,10,9,5,1,2,3]},{"rt":null,"stimulus":"<div class = centerbox><div class = fixation>+</div></div>","response":null,"trial_id":"test_ITI","exp_stage":"test","block_num":0,"condition":"simple","choices":["b","y","g","r","e"],"ITIParams":null,"trial_type":"html-keyboard-response","trial_index":31,"time_elapsed":3770311,"internal_node_id":"0.0-6.0-12.0","trial_duration":2704.7570386394905,"stimulus_duration":2704.7570386394905},{"rt":null,"stimulus":"<div class = centerbox><div class = fixation>****</div></div>","response":null,"trial_id":"test_inter-stimulus","exp_stage":"test","condition":"simple","trial_duration":2500,"stimulus_duration":2500,"block_num":0,"choices":["b","y","g","r","e"],"trial_type":"html-keyboard-response","trial_index":32,"time_elapsed":3772816,"internal_node_id":"0.0-6.0-13.0","correct_spatial_judgement_key":null},{"rt":null,"stimulus":"<div class=\"container\"><div class=\"box\"></div><div class=\"box active-box\"></div><div class=\"box\"></div><div class=\"box\"></div><div class=\"box\"></div><div class=\"box\"></div><div class=\"box\"></div><div class=\"box\"></div><div class=\"box\"></div><div class=\"box\"></div><div class=\"box\"></div><div class=\"box\"></div><div class=\"box\"></div><div class=\"box\"></div><div class=\"box\"></div><div class=\"box\"></div></div>","response":null,"trial_id":"test_stim","exp_stage":"test","condition":"simple","trial_duration":1000,"stimulus_duration":1000,"block_num":0,"choices":["b","y","g","r","e"],"trial_type":"html-keyboard-response","trial_index":33,"time_elapsed":3773818,"internal_node_id":"0.0-6.0-14.0","spatial_location":1},{"rt":null,"stimulus":"<div class = centerbox><div class = fixation>****</div></div>","response":null,"trial_id":"test_inter-stimulus","exp_stage":"test","condition":"simple","trial_duration":2500,"stimulus_duration":2500,"block_num":0,"choices":["b","y","g","r","e"],"trial_type":"html-keyboard-response","trial_index":34,"time_elapsed":3776574,"internal_node_id":"0.0-6.0-15.0","correct_spatial_judgement_key":null},{"rt":null,"stimulus":"<div class=\"container\"><div class=\"box\"></div><div class=\"box\"></div><div class=\"box\"></div><div class=\"box\"></div><div class=\"box\"></div><div class=\"box\"></div><div class=\"box\"></div><div class=\"box\"></div><div class=\"box\"></div><div class=\"box\"></div><div class=\"box\"></div><div class=\"box\"></div><div class=\"box\"></div><div class=\"box\"></div><div class=\"box\"></div><div class=\"box active-box\"></div></div>","response":null,"trial_id":"test_stim","exp_stage":"test","condition":"simple","trial_duration":1000,"stimulus_duration":1000,"block_num":0,"choices":["b","y","g","r","e"],"trial_type":"html-keyboard-response","trial_index":35,"time_elapsed":3777580,"internal_node_id":"0.0-6.0-16.0","spatial_location":15},{"rt":null,"stimulus":"<div class = centerbox><div class = fixation>****</div></div>","response":null,"trial_id":"test_inter-stimulus","exp_stage":"test","condition":"simple","trial_duration":2500,"stimulus_duration":2500,"block_num":0,"choices":["b","y","g","r","e"],"trial_type":"html-keyboard-response","trial_index":36,"time_elapsed":3780086,"internal_node_id":"0.0-6.0-17.0","correct_spatial_judgement_key":null},{"rt":null,"stimulus":"<div class=\"container\"><div class=\"box\"></div><div class=\"box\"></div><div class=\"box\"></div><div class=\"box\"></div><div class=\"box\"></div><div class=\"box\"></div><div class=\"box\"></div><div class=\"box\"></div><div class=\"box\"></div><div class=\"box active-box\"></div><div class=\"box\"></div><div class=\"box\"></div><div class=\"box\"></div><div class=\"box\"></div><div class=\"box\"></div><div class=\"box\"></div></div>","response":null,"trial_id":"test_stim","exp_stage":"test","condition":"simple","trial_duration":1000,"stimulus_duration":1000,"block_num":0,"choices":["b","y","g","r","e"],"trial_type":"html-keyboard-response","trial_index":37,"time_elapsed":3781092,"internal_node_id":"0.0-6.0-18.0","spatial_location":9},{"rt":null,"stimulus":"<div class = centerbox><div class = fixation>****</div></div>","response":null,"trial_id":"test_inter-stimulus","exp_stage":"test","condition":"simple","trial_duration":2500,"stimulus_duration":2500,"block_num":0,"choices":["b","y","g","r","e"],"trial_type":"html-keyboard-response","trial_index":38,"time_elapsed":3783598,"internal_node_id":"0.0-6.0-19.0","correct_spatial_judgement_key":null},{"rt":null,"stimulus":"<div class=\"container\"><div class=\"box\"></div><div class=\"box\"></div><div class=\"box\"></div><div class=\"box\"></div><div class=\"box\"></div><div class=\"box\"></div><div class=\"box\"></div><div class=\"box\"></div><div class=\"box\"></div><div class=\"box\"></div><div class=\"box\"></div><div class=\"box\"></div><div class=\"box\"></div><div class=\"box active-box\"></div><div class=\"box\"></div><div class=\"box\"></div></div>","response":null,"trial_id":"test_stim","exp_stage":"test","condition":"simple","trial_duration":1000,"stimulus_duration":1000,"block_num":0,"choices":["b","y","g","r","e"],"trial_type":"html-keyboard-response","trial_index":39,"time_elapsed":3784602,"internal_node_id":"0.0-6.0-20.0","spatial_location":13},{"rt":386,"stimulus":"<div class=\"container\"><div class=\"box\"></div><div class=\"box\"></div><div class=\"box\"></div><div class=\"box\"></div><div class=\"box\"></div><div class=\"box\"></div><div class=\"box\"></div><div class=\"box\"></div><div class=\"box\"></div><div class=\"box response-active\"></div><div class=\"box\"></div><div class=\"box\"></div><div class=\"box\"></div><div class=\"box\"></div><div class=\"box\"></div><div class=\"box\"></div></div>","response":"r","trial_id":"test_trial","exp_stage":"test","trial_duration":7000,"stimulus_duration":7000,"choices":["b","y","g","r","e"],"trial_type":"html-keyboard-response","trial_index":40,"time_elapsed":3791633,"internal_node_id":"0.0-6.0-21.0","valid_responses":[1,9,15,13],"extra_responses":null,"duplicate_responses":null,"duplicate_responses_timestamps":null,"extra_responses_timestamps":null,"correct_trial":0,"condition":"simple","block_num":0,"starting_cell":9,"correct_cell_order":[1,15,9,13],"valid_responses_timestamps":[1044,2295,3636,4654],"moving_through_grid_timestamps":[387,607,1642,1919,2670,2928,3293,4072,4301],"cell_order_through_grid":[5,1,5,9,10,11,15,14,13]},{"rt":null,"stimulus":"<div class = centerbox><div class = fixation>+</div></div>","response":null,"trial_id":"test_ITI","exp_stage":"test","block_num":0,"condition":"simple","choices":["b","y","g","r","e"],"ITIParams":null,"trial_type":"html-keyboard-response","trial_index":41,"time_elapsed":3798902,"internal_node_id":"0.0-6.0-22.0","trial_duration":6490.520094904756,"stimulus_duration":6490.520094904756},{"rt":null,"stimulus":"<div class = centerbox><div class = fixation>****</div></div>","response":null,"trial_id":"test_inter-stimulus","exp_stage":"test","condition":"simple","trial_duration":2500,"stimulus_duration":2500,"block_num":0,"choices":["b","y","g","r","e"],"trial_type":"html-keyboard-response","trial_index":42,"time_elapsed":3801678,"internal_node_id":"0.0-6.0-23.0","correct_spatial_judgement_key":null},{"rt":null,"stimulus":"<div class=\"container\"><div class=\"box\"></div><div class=\"box\"></div><div class=\"box\"></div><div class=\"box\"></div><div class=\"box\"></div><div class=\"box\"></div><div class=\"box\"></div><div class=\"box\"></div><div class=\"box\"></div><div class=\"box active-box\"></div><div class=\"box\"></div><div class=\"box\"></div><div class=\"box\"></div><div class=\"box\"></div><div class=\"box\"></div><div class=\"box\"></div></div>","response":null,"trial_id":"test_stim","exp_stage":"test","condition":"simple","trial_duration":1000,"stimulus_duration":1000,"block_num":0,"choices":["b","y","g","r","e"],"trial_type":"html-keyboard-response","trial_index":43,"time_elapsed":3802681,"internal_node_id":"0.0-6.0-24.0","spatial_location":9},{"rt":null,"stimulus":"<div class = centerbox><div class = fixation>****</div></div>","response":null,"trial_id":"test_inter-stimulus","exp_stage":"test","condition":"simple","trial_duration":2500,"stimulus_duration":2500,"block_num":0,"choices":["b","y","g","r","e"],"trial_type":"html-keyboard-response","trial_index":44,"time_elapsed":3805186,"internal_node_id":"0.0-6.0-25.0","correct_spatial_judgement_key":null},{"rt":null,"stimulus":"<div class=\"container\"><div class=\"box\"></div><div class=\"box\"></div><div class=\"box\"></div><div class=\"box\"></div><div class=\"box\"></div><div class=\"box\"></div><div class=\"box\"></div><div class=\"box\"></div><div class=\"box active-box\"></div><div class=\"box\"></div><div class=\"box\"></div><div class=\"box\"></div><div class=\"box\"></div><div class=\"box\"></div><div class=\"box\"></div><div class=\"box\"></div></div>","response":null,"trial_id":"test_stim","exp_stage":"test","condition":"simple","trial_duration":1000,"stimulus_duration":1000,"block_num":0,"choices":["b","y","g","r","e"],"trial_type":"html-keyboard-response","trial_index":45,"time_elapsed":3806191,"internal_node_id":"0.0-6.0-26.0","spatial_location":8},{"rt":null,"stimulus":"<div class = centerbox><div class = fixation>****</div></div>","response":null,"trial_id":"test_inter-stimulus","exp_stage":"test","condition":"simple","trial_duration":2500,"stimulus_duration":2500,"block_num":0,"choices":["b","y","g","r","e"],"trial_type":"html-keyboard-response","trial_index":46,"time_elapsed":3808697,"internal_node_id":"0.0-6.0-27.0","correct_spatial_judgement_key":null},{"rt":null,"stimulus":"<div class=\"container\"><div class=\"box\"></div><div class=\"box\"></div><div class=\"box\"></div><div class=\"box\"></div><div class=\"box\"></div><div class=\"box\"></div><div class=\"box\"></div><div class=\"box\"></div><div class=\"box\"></div><div class=\"box\"></div><div class=\"box\"></div><div class=\"box\"></div><div class=\"box\"></div><div class=\"box\"></div><div class=\"box\"></div><div class=\"box active-box\"></div></div>","response":null,"trial_id":"test_stim","exp_stage":"test","condition":"simple","trial_duration":1000,"stimulus_duration":1000,"block_num":0,"choices":["b","y","g","r","e"],"trial_type":"html-keyboard-response","trial_index":47,"time_elapsed":3809703,"internal_node_id":"0.0-6.0-28.0","spatial_location":15},{"rt":null,"stimulus":"<div class = centerbox><div class = fixation>****</div></div>","response":null,"trial_id":"test_inter-stimulus","exp_stage":"test","condition":"simple","trial_duration":2500,"stimulus_duration":2500,"block_num":0,"choices":["b","y","g","r","e"],"trial_type":"html-keyboard-response","trial_index":48,"time_elapsed":3812206,"internal_node_id":"0.0-6.0-29.0","correct_spatial_judgement_key":null},{"rt":null,"stimulus":"<div class=\"container\"><div class=\"box\"></div><div class=\"box\"></div><div class=\"box\"></div><div class=\"box\"></div><div class=\"box\"></div><div class=\"box\"></div><div class=\"box active-box\"></div><div class=\"box\"></div><div class=\"box\"></div><div class=\"box\"></div><div class=\"box\"></div><div class=\"box\"></div><div class=\"box\"></div><div class=\"box\"></div><div class=\"box\"></div><div class=\"box\"></div></div>","response":null,"trial_id":"test_stim","exp_stage":"test","condition":"simple","trial_duration":1000,"stimulus_duration":1000,"block_num":0,"choices":["b","y","g","r","e"],"trial_type":"html-keyboard-response","trial_index":49,"time_elapsed":3813209,"internal_node_id":"0.0-6.0-30.0","spatial_location":6},{"rt":1058,"stimulus":"<div class=\"container\"><div class=\"box\"></div><div class=\"box\"></div><div class=\"box\"></div><div class=\"box\"></div><div class=\"box\"></div><div class=\"box\"></div><div class=\"box\"></div><div class=\"box\"></div><div class=\"box response-active\"></div><div class=\"box\"></div><div class=\"box\"></div><div class=\"box\"></div><div class=\"box\"></div><div class=\"box\"></div><div class=\"box\"></div><div class=\"box\"></div></div>","response":"b","trial_id":"test_trial","exp_stage":"test","trial_duration":7000,"stimulus_duration":7000,"choices":["b","y","g","r","e"],"trial_type":"html-keyboard-response","trial_index":50,"time_elapsed":3820215,"internal_node_id":"0.0-6.0-31.0","valid_responses":[9,8,15,6],"extra_responses":null,"duplicate_responses":null,"duplicate_responses_timestamps":null,"extra_responses_timestamps":null,"correct_trial":1,"condition":"simple","block_num":0,"starting_cell":8,"correct_cell_order":[9,8,15,6],"valid_responses_timestamps":[1449,2283,3997,5341],"moving_through_grid_timestamps":[1058,1904,2634,2934,3284,3642,4387,4746,4988],"cell_order_through_grid":[9,8,9,10,11,15,14,10,6]},{"rt":null,"stimulus":"<div class = centerbox><div class = fixation>+</div></div>","response":null,"trial_id":"test_ITI","exp_stage":"test","block_num":0,"condition":"simple","choices":["b","y","g","r","e"],"ITIParams":null,"trial_type":"html-keyboard-response","trial_index":51,"time_elapsed":3822750,"internal_node_id":"0.0-6.0-32.0","trial_duration":2530.733293489753,"stimulus_duration":2530.733293489753},{"rt":null,"stimulus":"<div class = centerbox><div class = fixation>****</div></div>","response":null,"trial_id":"test_inter-stimulus","exp_stage":"test","condition":"simple","trial_duration":2500,"stimulus_duration":2500,"block_num":0,"choices":["b","y","g","r","e"],"trial_type":"html-keyboard-response","trial_index":52,"time_elapsed":3825277,"internal_node_id":"0.0-6.0-33.0","correct_spatial_judgement_key":null},{"rt":null,"stimulus":"<div class=\"container\"><div class=\"box\"></div><div class=\"box\"></div><div class=\"box\"></div><div class=\"box\"></div><div class=\"box\"></div><div class=\"box\"></div><div class=\"box\"></div><div class=\"box\"></div><div class=\"box\"></div><div class=\"box\"></div><div class=\"box\"></div><div class=\"box\"></div><div class=\"box active-box\"></div><div class=\"box\"></div><div class=\"box\"></div><div class=\"box\"></div></div>","response":null,"trial_id":"test_stim","exp_stage":"test","condition":"simple","trial_duration":1000,"stimulus_duration":1000,"block_num":0,"choices":["b","y","g","r","e"],"trial_type":"html-keyboard-response","trial_index":53,"time_elapsed":3826280,"internal_node_id":"0.0-6.0-34.0","spatial_location":12},{"rt":null,"stimulus":"<div class = centerbox><div class = fixation>****</div></div>","response":null,"trial_id":"test_inter-stimulus","exp_stage":"test","condition":"simple","trial_duration":2500,"stimulus_duration":2500,"block_num":0,"choices":["b","y","g","r","e"],"trial_type":"html-keyboard-response","trial_index":54,"time_elapsed":3828786,"internal_node_id":"0.0-6.0-35.0","correct_spatial_judgement_key":null},{"rt":null,"stimulus":"<div class=\"container\"><div class=\"box\"></div><div class=\"box\"></div><div class=\"box\"></div><div class=\"box\"></div><div class=\"box\"></div><div class=\"box\"></div><div class=\"box\"></div><div class=\"box\"></div><div class=\"box\"></div><div class=\"box\"></div><div class=\"box active-box\"></div><div class=\"box\"></div><div class=\"box\"></div><div class=\"box\"></div><div class=\"box\"></div><div class=\"box\"></div></div>","response":null,"trial_id":"test_stim","exp_stage":"test","condition":"simple","trial_duration":1000,"stimulus_duration":1000,"block_num":0,"choices":["b","y","g","r","e"],"trial_type":"html-keyboard-response","trial_index":55,"time_elapsed":3829792,"internal_node_id":"0.0-6.0-36.0","spatial_location":10},{"rt":null,"stimulus":"<div class = centerbox><div class = fixation>****</div></div>","response":null,"trial_id":"test_inter-stimulus","exp_stage":"test","condition":"simple","trial_duration":2500,"stimulus_duration":2500,"block_num":0,"choices":["b","y","g","r","e"],"trial_type":"html-keyboard-response","trial_index":56,"time_elapsed":3832298,"internal_node_id":"0.0-6.0-37.0","correct_spatial_judgement_key":null},{"rt":null,"stimulus":"<div class=\"container\"><div class=\"box\"></div><div class=\"box\"></div><div class=\"box\"></div><div class=\"box\"></div><div class=\"box\"></div><div class=\"box\"></div><div class=\"box\"></div><div class=\"box\"></div><div class=\"box active-box\"></div><div class=\"box\"></div><div class=\"box\"></div><div class=\"box\"></div><div class=\"box\"></div><div class=\"box\"></div><div class=\"box\"></div><div class=\"box\"></div></div>","response":null,"trial_id":"test_stim","exp_stage":"test","condition":"simple","trial_duration":1000,"stimulus_duration":1000,"block_num":0,"choices":["b","y","g","r","e"],"trial_type":"html-keyboard-response","trial_index":57,"time_elapsed":3833341,"internal_node_id":"0.0-6.0-38.0","spatial_location":8},{"rt":null,"stimulus":"<div class = centerbox><div class = fixation>****</div></div>","response":null,"trial_id":"test_inter-stimulus","exp_stage":"test","condition":"simple","trial_duration":2500,"stimulus_duration":2500,"block_num":0,"choices":["b","y","g","r","e"],"trial_type":"html-keyboard-response","trial_index":58,"time_elapsed":3835847,"internal_node_id":"0.0-6.0-39.0","correct_spatial_judgement_key":null},{"rt":null,"stimulus":"<div class=\"container\"><div class=\"box active-box\"></div><div class=\"box\"></div><div class=\"box\"></div><div class=\"box\"></div><div class=\"box\"></div><div class=\"box\"></div><div class=\"box\"></div><div class=\"box\"></div><div class=\"box\"></div><div class=\"box\"></div><div class=\"box\"></div><div class=\"box\"></div><div class=\"box\"></div><div class=\"box\"></div><div class=\"box\"></div><div class=\"box\"></div></div>","response":null,"trial_id":"test_stim","exp_stage":"test","condition":"simple","trial_duration":1000,"stimulus_duration":1000,"block_num":0,"choices":["b","y","g","r","e"],"trial_type":"html-keyboard-response","trial_index":59,"time_elapsed":3836854,"internal_node_id":"0.0-6.0-40.0","spatial_location":0},{"rt":389,"stimulus":"<div class=\"container\"><div class=\"box\"></div><div class=\"box\"></div><div class=\"box response-active\"></div><div class=\"box\"></div><div class=\"box\"></div><div class=\"box\"></div><div class=\"box\"></div><div class=\"box\"></div><div class=\"box\"></div><div class=\"box\"></div><div class=\"box\"></div><div class=\"box\"></div><div class=\"box\"></div><div class=\"box\"></div><div class=\"box\"></div><div class=\"box\"></div></div>","response":"y","trial_id":"test_trial","exp_stage":"test","trial_duration":7000,"stimulus_duration":7000,"choices":["b","y","g","r","e"],"trial_type":"html-keyboard-response","trial_index":60,"time_elapsed":3843859,"internal_node_id":"0.0-6.0-41.0","valid_responses":[12,10,8,0],"extra_responses":null,"duplicate_responses":null,"duplicate_responses_timestamps":null,"extra_responses_timestamps":null,"correct_trial":1,"condition":"simple","block_num":0,"starting_cell":2,"correct_cell_order":[12,10,8,0],"valid_responses_timestamps":[2313,3781,4808,5884],"moving_through_grid_timestamps":[389,874,1124,1348,1695,1980,2729,3141,3410,4160,4410,5239,5508],"cell_order_through_grid":[6,10,14,14,13,12,8,9,10,9,8,4,0]},{"rt":null,"stimulus":"<div class = centerbox><div class = fixation>+</div></div>","response":null,"trial_id":"test_ITI","exp_stage":"test","block_num":0,"condition":"simple","choices":["b","y","g","r","e"],"ITIParams":null,"trial_type":"html-keyboard-response","trial_index":61,"time_elapsed":3856510,"internal_node_id":"0.0-6.0-42.0","trial_duration":12315.760422882506,"stimulus_duration":12315.760422882506},{"rt":null,"stimulus":"<div class = centerbox><div class = fixation>****</div></div>","response":null,"trial_id":"test_inter-stimulus","exp_stage":"test","condition":"simple","trial_duration":2500,"stimulus_duration":2500,"block_num":0,"choices":["b","y","g","r","e"],"trial_type":"html-keyboard-response","trial_index":62,"time_elapsed":3859015,"internal_node_id":"0.0-6.0-43.0","correct_spatial_judgement_key":null},{"rt":null,"stimulus":"<div class=\"container\"><div class=\"box\"></div><div class=\"box\"></div><div class=\"box\"></div><div class=\"box\"></div><div class=\"box\"></div><div class=\"box\"></div><div class=\"box\"></div><div class=\"box\"></div><div class=\"box\"></div><div class=\"box active-box\"></div><div class=\"box\"></div><div class=\"box\"></div><div class=\"box\"></div><div class=\"box\"></div><div class=\"box\"></div><div class=\"box\"></div></div>","response":null,"trial_id":"test_stim","exp_stage":"test","condition":"simple","trial_duration":1000,"stimulus_duration":1000,"block_num":0,"choices":["b","y","g","r","e"],"trial_type":"html-keyboard-response","trial_index":63,"time_elapsed":3860019,"internal_node_id":"0.0-6.0-44.0","spatial_location":9},{"rt":null,"stimulus":"<div class = centerbox><div class = fixation>****</div></div>","response":null,"trial_id":"test_inter-stimulus","exp_stage":"test","condition":"simple","trial_duration":2500,"stimulus_duration":2500,"block_num":0,"choices":["b","y","g","r","e"],"trial_type":"html-keyboard-response","trial_index":64,"time_elapsed":3862534,"internal_node_id":"0.0-6.0-45.0","correct_spatial_judgement_key":null},{"rt":null,"stimulus":"<div class=\"container\"><div class=\"box active-box\"></div><div class=\"box\"></div><div class=\"box\"></div><div class=\"box\"></div><div class=\"box\"></div><div class=\"box\"></div><div class=\"box\"></div><div class=\"box\"></div><div class=\"box\"></div><div class=\"box\"></div><div class=\"box\"></div><div class=\"box\"></div><div class=\"box\"></div><div class=\"box\"></div><div class=\"box\"></div><div class=\"box\"></div></div>","response":null,"trial_id":"test_stim","exp_stage":"test","condition":"simple","trial_duration":1000,"stimulus_duration":1000,"block_num":0,"choices":["b","y","g","r","e"],"trial_type":"html-keyboard-response","trial_index":65,"time_elapsed":3863579,"internal_node_id":"0.0-6.0-46.0","spatial_location":0},{"rt":null,"stimulus":"<div class = centerbox><div class = fixation>****</div></div>","response":null,"trial_id":"test_inter-stimulus","exp_stage":"test","condition":"simple","trial_duration":2500,"stimulus_duration":2500,"block_num":0,"choices":["b","y","g","r","e"],"trial_type":"html-keyboard-response","trial_index":66,"time_elapsed":3866085,"internal_node_id":"0.0-6.0-47.0","correct_spatial_judgement_key":null},{"rt":null,"stimulus":"<div class=\"container\"><div class=\"box\"></div><div class=\"box\"></div><div class=\"box\"></div><div class=\"box\"></div><div class=\"box\"></div><div class=\"box\"></div><div class=\"box\"></div><div class=\"box\"></div><div class=\"box\"></div><div class=\"box\"></div><div class=\"box\"></div><div class=\"box active-box\"></div><div class=\"box\"></div><div class=\"box\"></div><div class=\"box\"></div><div class=\"box\"></div></div>","response":null,"trial_id":"test_stim","exp_stage":"test","condition":"simple","trial_duration":1000,"stimulus_duration":1000,"block_num":0,"choices":["b","y","g","r","e"],"trial_type":"html-keyboard-response","trial_index":67,"time_elapsed":3867091,"internal_node_id":"0.0-6.0-48.0","spatial_location":11},{"rt":null,"stimulus":"<div class = centerbox><div class = fixation>****</div></div>","response":null,"trial_id":"test_inter-stimulus","exp_stage":"test","condition":"simple","trial_duration":2500,"stimulus_duration":2500,"block_num":0,"choices":["b","y","g","r","e"],"trial_type":"html-keyboard-response","trial_index":68,"time_elapsed":3869622,"internal_node_id":"0.0-6.0-49.0","correct_spatial_judgement_key":null},{"rt":null,"stimulus":"<div class=\"container\"><div class=\"box\"></div><div class=\"box active-box\"></div><div class=\"box\"></div><div class=\"box\"></div><div class=\"box\"></div><div class=\"box\"></div><div class=\"box\"></div><div class=\"box\"></div><div class=\"box\"></div><div class=\"box\"></div><div class=\"box\"></div><div class=\"box\"></div><div class=\"box\"></div><div class=\"box\"></div><div class=\"box\"></div><div class=\"box\"></div></div>","response":null,"trial_id":"test_stim","exp_stage":"test","condition":"simple","trial_duration":1000,"stimulus_duration":1000,"block_num":0,"choices":["b","y","g","r","e"],"trial_type":"html-keyboard-response","trial_index":69,"time_elapsed":3870628,"internal_node_id":"0.0-6.0-50.0","spatial_location":1},{"rt":713,"stimulus":"<div class=\"container\"><div class=\"box\"></div><div class=\"box\"></div><div class=\"box\"></div><div class=\"box\"></div><div class=\"box\"></div><div class=\"box\"></div><div class=\"box\"></div><div class=\"box\"></div><div class=\"box\"></div><div class=\"box\"></div><div class=\"box\"></div><div class=\"box\"></div><div class=\"box response-active\"></div><div class=\"box\"></div><div class=\"box\"></div><div class=\"box\"></div></div>","response":"b","trial_id":"test_trial","exp_stage":"test","trial_duration":7000,"stimulus_duration":7000,"choices":["b","y","g","r","e"],"trial_type":"html-keyboard-response","trial_index":70,"time_elapsed":3877690,"internal_node_id":"0.0-6.0-51.0","valid_responses":[9,0,13,11],"extra_responses":null,"duplicate_responses":null,"duplicate_responses_timestamps":null,"extra_responses_timestamps":null,"correct_trial":0,"condition":"simple","block_num":0,"starting_cell":12,"correct_cell_order":[9,0,11,1],"valid_responses_timestamps":[1609,3041,4733,6220],"moving_through_grid_timestamps":[715,1127,2024,2261,2637,3489,3717,3982,4318,5091,5347,5757],"cell_order_through_grid":[13,9,5,1,0,4,8,12,13,14,15,11]},{"rt":null,"stimulus":"<div class = centerbox><div class = fixation>+</div></div>","response":null,"trial_id":"test_ITI","exp_stage":"test","block_num":0,"condition":"simple","choices":["b","y","g","r","e"],"ITIParams":null,"trial_type":"html-keyboard-response","trial_index":71,"time_elapsed":3879961,"internal_node_id":"0.0-6.0-52.0","trial_duration":2264.4633544800995,"stimulus_duration":2264.4633544800995},{"rt":null,"stimulus":"<div class = centerbox><div class = fixation>****</div></div>","response":null,"trial_id":"test_inter-stimulus","exp_stage":"test","condition":"simple","trial_duration":2500,"stimulus_duration":2500,"block_num":0,"choices":["b","y","g","r","e"],"trial_type":"html-keyboard-response","trial_index":72,"time_elapsed":3882693,"internal_node_id":"0.0-6.0-53.0","correct_spatial_judgement_key":null},{"rt":null,"stimulus":"<div class=\"container\"><div class=\"box\"></div><div class=\"box\"></div><div class=\"box\"></div><div class=\"box\"></div><div class=\"box\"></div><div class=\"box\"></div><div class=\"box\"></div><div class=\"box\"></div><div class=\"box\"></div><div class=\"box\"></div><div class=\"box\"></div><div class=\"box\"></div><div class=\"box active-box\"></div><div class=\"box\"></div><div class=\"box\"></div><div class=\"box\"></div></div>","response":null,"trial_id":"test_stim","exp_stage":"test","condition":"simple","trial_duration":1000,"stimulus_duration":1000,"block_num":0,"choices":["b","y","g","r","e"],"trial_type":"html-keyboard-response","trial_index":73,"time_elapsed":3883737,"internal_node_id":"0.0-6.0-54.0","spatial_location":12},{"rt":null,"stimulus":"<div class = centerbox><div class = fixation>****</div></div>","response":null,"trial_id":"test_inter-stimulus","exp_stage":"test","condition":"simple","trial_duration":2500,"stimulus_duration":2500,"block_num":0,"choices":["b","y","g","r","e"],"trial_type":"html-keyboard-response","trial_index":74,"time_elapsed":3886244,"internal_node_id":"0.0-6.0-55.0","correct_spatial_judgement_key":null},{"rt":null,"stimulus":"<div class=\"container\"><div class=\"box\"></div><div class=\"box\"></div><div class=\"box active-box\"></div><div class=\"box\"></div><div class=\"box\"></div><div class=\"box\"></div><div class=\"box\"></div><div class=\"box\"></div><div class=\"box\"></div><div class=\"box\"></div><div class=\"box\"></div><div class=\"box\"></div><div class=\"box\"></div><div class=\"box\"></div><div class=\"box\"></div><div class=\"box\"></div></div>","response":null,"trial_id":"test_stim","exp_stage":"test","condition":"simple","trial_duration":1000,"stimulus_duration":1000,"block_num":0,"choices":["b","y","g","r","e"],"trial_type":"html-keyboard-response","trial_index":75,"time_elapsed":3887248,"internal_node_id":"0.0-6.0-56.0","spatial_location":2},{"rt":null,"stimulus":"<div class = centerbox><div class = fixation>****</div></div>","response":null,"trial_id":"test_inter-stimulus","exp_stage":"test","condition":"simple","trial_duration":2500,"stimulus_duration":2500,"block_num":0,"choices":["b","y","g","r","e"],"trial_type":"html-keyboard-response","trial_index":76,"time_elapsed":3889781,"internal_node_id":"0.0-6.0-57.0","correct_spatial_judgement_key":null},{"rt":null,"stimulus":"<div class=\"container\"><div class=\"box\"></div><div class=\"box\"></div><div class=\"box\"></div><div class=\"box\"></div><div class=\"box\"></div><div class=\"box\"></div><div class=\"box\"></div><div class=\"box\"></div><div class=\"box\"></div><div class=\"box\"></div><div class=\"box\"></div><div class=\"box\"></div><div class=\"box\"></div><div class=\"box\"></div><div class=\"box active-box\"></div><div class=\"box\"></div></div>","response":null,"trial_id":"test_stim","exp_stage":"test","condition":"simple","trial_duration":1000,"stimulus_duration":1000,"block_num":0,"choices":["b","y","g","r","e"],"trial_type":"html-keyboard-response","trial_index":77,"time_elapsed":3890786,"internal_node_id":"0.0-6.0-58.0","spatial_location":14},{"rt":null,"stimulus":"<div class = centerbox><div class = fixation>****</div></div>","response":null,"trial_id":"test_inter-stimulus","exp_stage":"test","condition":"simple","trial_duration":2500,"stimulus_duration":2500,"block_num":0,"choices":["b","y","g","r","e"],"trial_type":"html-keyboard-response","trial_index":78,"time_elapsed":3893291,"internal_node_id":"0.0-6.0-59.0","correct_spatial_judgement_key":null},{"rt":null,"stimulus":"<div class=\"container\"><div class=\"box active-box\"></div><div class=\"box\"></div><div class=\"box\"></div><div class=\"box\"></div><div class=\"box\"></div><div class=\"box\"></div><div class=\"box\"></div><div class=\"box\"></div><div class=\"box\"></div><div class=\"box\"></div><div class=\"box\"></div><div class=\"box\"></div><div class=\"box\"></div><div class=\"box\"></div><div class=\"box\"></div><div class=\"box\"></div></div>","response":null,"trial_id":"test_stim","exp_stage":"test","condition":"simple","trial_duration":1000,"stimulus_duration":1000,"block_num":0,"choices":["b","y","g","r","e"],"trial_type":"html-keyboard-response","trial_index":79,"time_elapsed":3894292,"internal_node_id":"0.0-6.0-60.0","spatial_location":0},{"rt":1002,"stimulus":"<div class=\"container\"><div class=\"box\"></div><div class=\"box response-active\"></div><div class=\"box\"></div><div class=\"box\"></div><div class=\"box\"></div><div class=\"box\"></div><div class=\"box\"></div><div class=\"box\"></div><div class=\"box\"></div><div class=\"box\"></div><div class=\"box\"></div><div class=\"box\"></div><div class=\"box\"></div><div class=\"box\"></div><div class=\"box\"></div><div class=\"box\"></div></div>","response":"y","trial_id":"test_trial","exp_stage":"test","trial_duration":7000,"stimulus_duration":7000,"choices":["b","y","g","r","e"],"trial_type":"html-keyboard-response","trial_index":80,"time_elapsed":3901295,"internal_node_id":"0.0-6.0-61.0","valid_responses":[12,2,14],"extra_responses":null,"duplicate_responses":null,"duplicate_responses_timestamps":null,"extra_responses_timestamps":null,"correct_trial":null,"condition":"simple","block_num":0,"starting_cell":1,"correct_cell_order":[12,2,14,0],"valid_responses_timestamps":[2487,4868,6086],"moving_through_grid_timestamps":[1002,1321,1577,2046,2478,3213,3604,3875,4210,4524,5242,5493,5750,6458,6742],"cell_order_through_grid":[5,9,13,12,12,8,4,0,1,2,6,10,14,13,12]},{"rt":88,"stimulus":"<div class = centerbox><div class = fixation>+</div></div>","response":"r","trial_id":"test_ITI","exp_stage":"test","block_num":0,"condition":"simple","choices":["b","y","g","r","e"],"ITIParams":null,"trial_type":"html-keyboard-response","trial_index":81,"time_elapsed":3908140,"internal_node_id":"0.0-6.0-62.0","trial_duration":6497.914556527007,"stimulus_duration":6497.914556527007},{"rt":null,"stimulus":"<div class = centerbox><div class = fixation>****</div></div>","response":null,"trial_id":"test_inter-stimulus","exp_stage":"test","condition":"simple","trial_duration":2500,"stimulus_duration":2500,"block_num":0,"choices":["b","y","g","r","e"],"trial_type":"html-keyboard-response","trial_index":82,"time_elapsed":3910646,"internal_node_id":"0.0-6.0-63.0","correct_spatial_judgement_key":null},{"rt":null,"stimulus":"<div class=\"container\"><div class=\"box\"></div><div class=\"box\"></div><div class=\"box\"></div><div class=\"box\"></div><div class=\"box\"></div><div class=\"box\"></div><div class=\"box\"></div><div class=\"box\"></div><div class=\"box active-box\"></div><div class=\"box\"></div><div class=\"box\"></div><div class=\"box\"></div><div class=\"box\"></div><div class=\"box\"></div><div class=\"box\"></div><div class=\"box\"></div></div>","response":null,"trial_id":"test_stim","exp_stage":"test","condition":"simple","trial_duration":1000,"stimulus_duration":1000,"block_num":0,"choices":["b","y","g","r","e"],"trial_type":"html-keyboard-response","trial_index":83,"time_elapsed":3911651,"internal_node_id":"0.0-6.0-64.0","spatial_location":8},{"rt":null,"stimulus":"<div class = centerbox><div class = fixation>****</div></div>","response":null,"trial_id":"test_inter-stimulus","exp_stage":"test","condition":"simple","trial_duration":2500,"stimulus_duration":2500,"block_num":0,"choices":["b","y","g","r","e"],"trial_type":"html-keyboard-response","trial_index":84,"time_elapsed":3914171,"internal_node_id":"0.0-6.0-65.0","correct_spatial_judgement_key":null},{"rt":null,"stimulus":"<div class=\"container\"><div class=\"box\"></div><div class=\"box\"></div><div class=\"box\"></div><div class=\"box\"></div><div class=\"box\"></div><div class=\"box\"></div><div class=\"box\"></div><div class=\"box\"></div><div class=\"box\"></div><div class=\"box\"></div><div class=\"box\"></div><div class=\"box\"></div><div class=\"box\"></div><div class=\"box active-box\"></div><div class=\"box\"></div><div class=\"box\"></div></div>","response":null,"trial_id":"test_stim","exp_stage":"test","condition":"simple","trial_duration":1000,"stimulus_duration":1000,"block_num":0,"choices":["b","y","g","r","e"],"trial_type":"html-keyboard-response","trial_index":85,"time_elapsed":3915177,"internal_node_id":"0.0-6.0-66.0","spatial_location":13},{"rt":null,"stimulus":"<div class = centerbox><div class = fixation>****</div></div>","response":null,"trial_id":"test_inter-stimulus","exp_stage":"test","condition":"simple","trial_duration":2500,"stimulus_duration":2500,"block_num":0,"choices":["b","y","g","r","e"],"trial_type":"html-keyboard-response","trial_index":86,"time_elapsed":3917681,"internal_node_id":"0.0-6.0-67.0","correct_spatial_judgement_key":null},{"rt":null,"stimulus":"<div class=\"container\"><div class=\"box\"></div><div class=\"box\"></div><div class=\"box\"></div><div class=\"box\"></div><div class=\"box\"></div><div class=\"box\"></div><div class=\"box\"></div><div class=\"box\"></div><div class=\"box\"></div><div class=\"box active-box\"></div><div class=\"box\"></div><div class=\"box\"></div><div class=\"box\"></div><div class=\"box\"></div><div class=\"box\"></div><div class=\"box\"></div></div>","response":null,"trial_id":"test_stim","exp_stage":"test","condition":"simple","trial_duration":1000,"stimulus_duration":1000,"block_num":0,"choices":["b","y","g","r","e"],"trial_type":"html-keyboard-response","trial_index":87,"time_elapsed":3918685,"internal_node_id":"0.0-6.0-68.0","spatial_location":9},{"rt":null,"stimulus":"<div class = centerbox><div class = fixation>****</div></div>","response":null,"trial_id":"test_inter-stimulus","exp_stage":"test","condition":"simple","trial_duration":2500,"stimulus_duration":2500,"block_num":0,"choices":["b","y","g","r","e"],"trial_type":"html-keyboard-response","trial_index":88,"time_elapsed":3921190,"internal_node_id":"0.0-6.0-69.0","correct_spatial_judgement_key":null},{"rt":null,"stimulus":"<div class=\"container\"><div class=\"box\"></div><div class=\"box\"></div><div class=\"box\"></div><div class=\"box\"></div><div class=\"box\"></div><div class=\"box\"></div><div class=\"box\"></div><div class=\"box\"></div><div class=\"box\"></div><div class=\"box\"></div><div class=\"box\"></div><div class=\"box\"></div><div class=\"box\"></div><div class=\"box\"></div><div class=\"box\"></div><div class=\"box active-box\"></div></div>","response":null,"trial_id":"test_stim","exp_stage":"test","condition":"simple","trial_duration":1000,"stimulus_duration":1000,"block_num":0,"choices":["b","y","g","r","e"],"trial_type":"html-keyboard-response","trial_index":89,"time_elapsed":3922234,"internal_node_id":"0.0-6.0-70.0","spatial_location":15},{"rt":1176,"stimulus":"<div class=\"container\"><div class=\"box\"></div><div class=\"box\"></div><div class=\"box\"></div><div class=\"box\"></div><div class=\"box\"></div><div class=\"box\"></div><div class=\"box\"></div><div class=\"box\"></div><div class=\"box\"></div><div class=\"box\"></div><div class=\"box response-active\"></div><div class=\"box\"></div><div class=\"box\"></div><div class=\"box\"></div><div class=\"box\"></div><div class=\"box\"></div></div>","response":"g","trial_id":"test_trial","exp_stage":"test","trial_duration":7000,"stimulus_duration":7000,"choices":["b","y","g","r","e"],"trial_type":"html-keyboard-response","trial_index":90,"time_elapsed":3929236,"internal_node_id":"0.0-6.0-71.0","valid_responses":[8,13,9,11],"extra_responses":null,"duplicate_responses":null,"duplicate_responses_timestamps":null,"extra_responses_timestamps":null,"correct_trial":0,"condition":"simple","block_num":0,"starting_cell":10,"correct_cell_order":[8,13,9,15],"valid_responses_timestamps":[1842,2943,3774,4714],"moving_through_grid_timestamps":[1177,1465,2219,2569,3365,4121,4359],"cell_order_through_grid":[9,8,9,13,9,10,11]},{"rt":null,"stimulus":"<div class = centerbox><div class = fixation>+</div></div>","response":null,"trial_id":"test_ITI","exp_stage":"test","block_num":0,"condition":"simple","choices":["b","y","g","r","e"],"ITIParams":null,"trial_type":"html-keyboard-response","trial_index":91,"time_elapsed":3937035,"internal_node_id":"0.0-6.0-72.0","trial_duration":7797.032892599674,"stimulus_duration":7797.032892599674},{"rt":null,"stimulus":"<div class = centerbox><div class = fixation>****</div></div>","response":null,"trial_id":"test_inter-stimulus","exp_stage":"test","condition":"simple","trial_duration":2500,"stimulus_duration":2500,"block_num":0,"choices":["b","y","g","r","e"],"trial_type":"html-keyboard-response","trial_index":92,"time_elapsed":3939541,"internal_node_id":"0.0-6.0-73.0","correct_spatial_judgement_key":null},{"rt":null,"stimulus":"<div class=\"container\"><div class=\"box\"></div><div class=\"box\"></div><div class=\"box\"></div><div class=\"box\"></div><div class=\"box\"></div><div class=\"box\"></div><div class=\"box\"></div><div class=\"box\"></div><div class=\"box\"></div><div class=\"box\"></div><div class=\"box\"></div><div class=\"box\"></div><div class=\"box\"></div><div class=\"box active-box\"></div><div class=\"box\"></div><div class=\"box\"></div></div>","response":null,"trial_id":"test_stim","exp_stage":"test","condition":"simple","trial_duration":1000,"stimulus_duration":1000,"block_num":0,"choices":["b","y","g","r","e"],"trial_type":"html-keyboard-response","trial_index":93,"time_elapsed":3940547,"internal_node_id":"0.0-6.0-74.0","spatial_location":13},{"rt":null,"stimulus":"<div class = centerbox><div class = fixation>****</div></div>","response":null,"trial_id":"test_inter-stimulus","exp_stage":"test","condition":"simple","trial_duration":2500,"stimulus_duration":2500,"block_num":0,"choices":["b","y","g","r","e"],"trial_type":"html-keyboard-response","trial_index":94,"time_elapsed":3943053,"internal_node_id":"0.0-6.0-75.0","correct_spatial_judgement_key":null},{"rt":null,"stimulus":"<div class=\"container\"><div class=\"box\"></div><div class=\"box\"></div><div class=\"box\"></div><div class=\"box\"></div><div class=\"box\"></div><div class=\"box\"></div><div class=\"box\"></div><div class=\"box\"></div><div class=\"box active-box\"></div><div class=\"box\"></div><div class=\"box\"></div><div class=\"box\"></div><div class=\"box\"></div><div class=\"box\"></div><div class=\"box\"></div><div class=\"box\"></div></div>","response":null,"trial_id":"test_stim","exp_stage":"test","condition":"simple","trial_duration":1000,"stimulus_duration":1000,"block_num":0,"choices":["b","y","g","r","e"],"trial_type":"html-keyboard-response","trial_index":95,"time_elapsed":3944059,"internal_node_id":"0.0-6.0-76.0","spatial_location":8},{"rt":null,"stimulus":"<div class = centerbox><div class = fixation>****</div></div>","response":null,"trial_id":"test_inter-stimulus","exp_stage":"test","condition":"simple","trial_duration":2500,"stimulus_duration":2500,"block_num":0,"choices":["b","y","g","r","e"],"trial_type":"html-keyboard-response","trial_index":96,"time_elapsed":3946564,"internal_node_id":"0.0-6.0-77.0","correct_spatial_judgement_key":null},{"rt":null,"stimulus":"<div class=\"container\"><div class=\"box\"></div><div class=\"box\"></div><div class=\"box\"></div><div class=\"box\"></div><div class=\"box\"></div><div class=\"box\"></div><div class=\"box active-box\"></div><div class=\"box\"></div><div class=\"box\"></div><div class=\"box\"></div><div class=\"box\"></div><div class=\"box\"></div><div class=\"box\"></div><div class=\"box\"></div><div class=\"box\"></div><div class=\"box\"></div></div>","response":null,"trial_id":"test_stim","exp_stage":"test","condition":"simple","trial_duration":1000,"stimulus_duration":1000,"block_num":0,"choices":["b","y","g","r","e"],"trial_type":"html-keyboard-response","trial_index":97,"time_elapsed":3947570,"internal_node_id":"0.0-6.0-78.0","spatial_location":6},{"rt":null,"stimulus":"<div class = centerbox><div class = fixation>****</div></div>","response":null,"trial_id":"test_inter-stimulus","exp_stage":"test","condition":"simple","trial_duration":2500,"stimulus_duration":2500,"block_num":0,"choices":["b","y","g","r","e"],"trial_type":"html-keyboard-response","trial_index":98,"time_elapsed":3950076,"internal_node_id":"0.0-6.0-79.0","correct_spatial_judgement_key":null},{"rt":null,"stimulus":"<div class=\"container\"><div class=\"box\"></div><div class=\"box active-box\"></div><div class=\"box\"></div><div class=\"box\"></div><div class=\"box\"></div><div class=\"box\"></div><div class=\"box\"></div><div class=\"box\"></div><div class=\"box\"></div><div class=\"box\"></div><div class=\"box\"></div><div class=\"box\"></div><div class=\"box\"></div><div class=\"box\"></div><div class=\"box\"></div><div class=\"box\"></div></div>","response":null,"trial_id":"test_stim","exp_stage":"test","condition":"simple","trial_duration":1000,"stimulus_duration":1000,"block_num":0,"choices":["b","y","g","r","e"],"trial_type":"html-keyboard-response","trial_index":99,"time_elapsed":3951078,"internal_node_id":"0.0-6.0-80.0","spatial_location":1},{"rt":521,"stimulus":"<div class=\"container\"><div class=\"box\"></div><div class=\"box\"></div><div class=\"box\"></div><div class=\"box\"></div><div class=\"box\"></div><div class=\"box\"></div><div class=\"box\"></div><div class=\"box response-active\"></div><div class=\"box\"></div><div class=\"box\"></div><div class=\"box\"></div><div class=\"box\"></div><div class=\"box\"></div><div class=\"box\"></div><div class=\"box\"></div><div class=\"box\"></div></div>","response":"y","trial_id":"test_trial","exp_stage":"test","trial_duration":7000,"stimulus_duration":7000,"choices":["b","y","g","r","e"],"trial_type":"html-keyboard-response","trial_index":100,"time_elapsed":3958082,"internal_node_id":"0.0-6.0-81.0","valid_responses":[13,8,6,1],"extra_responses":null,"duplicate_responses":null,"duplicate_responses_timestamps":null,"extra_responses_timestamps":null,"correct_trial":1,"condition":"simple","block_num":0,"starting_cell":7,"correct_cell_order":[13,8,6,1],"valid_responses_timestamps":[1995,3137,4469,5791],"moving_through_grid_timestamps":[523,780,1002,1370,1657,2374,2732,3524,3934,4160,4842,5261],"cell_order_through_grid":[11,15,15,14,13,12,8,4,5,6,2,1]},{"rt":null,"stimulus":"<div class = centerbox><div class = fixation>+</div></div>","response":null,"trial_id":"test_ITI","exp_stage":"test","block_num":0,"condition":"simple","choices":["b","y","g","r","e"],"ITIParams":null,"trial_type":"html-keyboard-response","trial_index":101,"time_elapsed":3961289,"internal_node_id":"0.0-6.0-82.0","trial_duration":3201.372342024655,"stimulus_duration":3201.372342024655},{"rt":null,"stimulus":"<div class = centerbox><div class = fixation>+</div></div>","response":null,"trial_id":"test_long_fixation","exp_stage":"test","trial_duration":6000,"stimulus_duration":6000,"block_num":1,"choices":["b","y","g","r","e"],"trial_type":"html-keyboard-response","trial_index":102,"time_elapsed":3967292,"internal_node_id":"0.0-6.1-0.1-0.1"},{"rt":null,"stimulus":"<div class=\"bigbox\"><div class=\"picture_box\"><p class=\"block-text\"><div class = centerbox><p class=block-text>Completed 1 of 3 blocks.</p></div></p></div></div>","response":null,"trial_id":"test_feedback","exp_stage":"test","trial_duration":4000,"block_num":1,"trial_type":"html-keyboard-response","trial_index":103,"time_elapsed":3971298,"internal_node_id":"0.0-6.1-1.1-0.1","block_level_feedback":{}},{"rt":null,"stimulus":"<div class = centerbox><div class = fixation>+</div></div>","response":null,"trial_id":"test_long_fixation","exp_stage":"test","trial_duration":6000,"stimulus_duration":6000,"block_num":1,"choices":["b","y","g","r","e"],"trial_type":"html-keyboard-response","trial_index":104,"time_elapsed":3977304,"internal_node_id":"0.0-6.1-2.1-0.1"},{"rt":null,"stimulus":"<div class = centerbox><div class = fixation>****</div></div>","response":null,"trial_id":"test_inter-stimulus","exp_stage":"test","condition":"simple","trial_duration":2500,"stimulus_duration":2500,"block_num":1,"choices":["b","y","g","r","e"],"trial_type":"html-keyboard-response","trial_index":105,"time_elapsed":3979806,"internal_node_id":"0.0-6.1-3.1","correct_spatial_judgement_key":null},{"rt":null,"stimulus":"<div class=\"container\"><div class=\"box active-box\"></div><div class=\"box\"></div><div class=\"box\"></div><div class=\"box\"></div><div class=\"box\"></div><div class=\"box\"></div><div class=\"box\"></div><div class=\"box\"></div><div class=\"box\"></div><div class=\"box\"></div><div class=\"box\"></div><div class=\"box\"></div><div class=\"box\"></div><div class=\"box\"></div><div class=\"box\"></div><div class=\"box\"></div></div>","response":null,"trial_id":"test_stim","exp_stage":"test","condition":"simple","trial_duration":1000,"stimulus_duration":1000,"block_num":1,"choices":["b","y","g","r","e"],"trial_type":"html-keyboard-response","trial_index":106,"time_elapsed":3980851,"internal_node_id":"0.0-6.1-4.1","spatial_location":0},{"rt":null,"stimulus":"<div class = centerbox><div class = fixation>****</div></div>","response":null,"trial_id":"test_inter-stimulus","exp_stage":"test","condition":"simple","trial_duration":2500,"stimulus_duration":2500,"block_num":1,"choices":["b","y","g","r","e"],"trial_type":"html-keyboard-response","trial_index":107,"time_elapsed":3983356,"internal_node_id":"0.0-6.1-5.1","correct_spatial_judgement_key":null},{"rt":null,"stimulus":"<div class=\"container\"><div class=\"box\"></div><div class=\"box\"></div><div class=\"box\"></div><div class=\"box\"></div><div class=\"box\"></div><div class=\"box\"></div><div class=\"box\"></div><div class=\"box active-box\"></div><div class=\"box\"></div><div class=\"box\"></div><div class=\"box\"></div><div class=\"box\"></div><div class=\"box\"></div><div class=\"box\"></div><div class=\"box\"></div><div class=\"box\"></div></div>","response":null,"trial_id":"test_stim","exp_stage":"test","condition":"simple","trial_duration":1000,"stimulus_duration":1000,"block_num":1,"choices":["b","y","g","r","e"],"trial_type":"html-keyboard-response","trial_index":108,"time_elapsed":3984360,"internal_node_id":"0.0-6.1-6.1","spatial_location":7},{"rt":null,"stimulus":"<div class = centerbox><div class = fixation>****</div></div>","response":null,"trial_id":"test_inter-stimulus","exp_stage":"test","condition":"simple","trial_duration":2500,"stimulus_duration":2500,"block_num":1,"choices":["b","y","g","r","e"],"trial_type":"html-keyboard-response","trial_index":109,"time_elapsed":3986898,"internal_node_id":"0.0-6.1-7.1","correct_spatial_judgement_key":null},{"rt":null,"stimulus":"<div class=\"container\"><div class=\"box\"></div><div class=\"box\"></div><div class=\"box\"></div><div class=\"box\"></div><div class=\"box\"></div><div class=\"box active-box\"></div><div class=\"box\"></div><div class=\"box\"></div><div class=\"box\"></div><div class=\"box\"></div><div class=\"box\"></div><div class=\"box\"></div><div class=\"box\"></div><div class=\"box\"></div><div class=\"box\"></div><div class=\"box\"></div></div>","response":null,"trial_id":"test_stim","exp_stage":"test","condition":"simple","trial_duration":1000,"stimulus_duration":1000,"block_num":1,"choices":["b","y","g","r","e"],"trial_type":"html-keyboard-response","trial_index":110,"time_elapsed":3987904,"internal_node_id":"0.0-6.1-8.1","spatial_location":5},{"rt":null,"stimulus":"<div class = centerbox><div class = fixation>****</div></div>","response":null,"trial_id":"test_inter-stimulus","exp_stage":"test","condition":"simple","trial_duration":2500,"stimulus_duration":2500,"block_num":1,"choices":["b","y","g","r","e"],"trial_type":"html-keyboard-response","trial_index":111,"time_elapsed":3990410,"internal_node_id":"0.0-6.1-9.1","correct_spatial_judgement_key":null},{"rt":null,"stimulus":"<div class=\"container\"><div class=\"box\"></div><div class=\"box active-box\"></div><div class=\"box\"></div><div class=\"box\"></div><div class=\"box\"></div><div class=\"box\"></div><div class=\"box\"></div><div class=\"box\"></div><div class=\"box\"></div><div class=\"box\"></div><div class=\"box\"></div><div class=\"box\"></div><div class=\"box\"></div><div class=\"box\"></div><div class=\"box\"></div><div class=\"box\"></div></div>","response":null,"trial_id":"test_stim","exp_stage":"test","condition":"simple","trial_duration":1000,"stimulus_duration":1000,"block_num":1,"choices":["b","y","g","r","e"],"trial_type":"html-keyboard-response","trial_index":112,"time_elapsed":3991412,"internal_node_id":"0.0-6.1-10.1","spatial_location":1},{"rt":787,"stimulus":"<div class=\"container\"><div class=\"box\"></div><div class=\"box\"></div><div class=\"box\"></div><div class=\"box\"></div><div class=\"box\"></div><div class=\"box\"></div><div class=\"box\"></div><div class=\"box response-active\"></div><div class=\"box\"></div><div class=\"box\"></div><div class=\"box\"></div><div class=\"box\"></div><div class=\"box\"></div><div class=\"box\"></div><div class=\"box\"></div><div class=\"box\"></div></div>","response":"g","trial_id":"test_trial","exp_stage":"test","trial_duration":7000,"stimulus_duration":7000,"choices":["b","y","g","r","e"],"trial_type":"html-keyboard-response","trial_index":113,"time_elapsed":3998415,"internal_node_id":"0.0-6.1-11.1","valid_responses":[0,3,7,1],"extra_responses":null,"duplicate_responses":null,"duplicate_responses_timestamps":null,"extra_responses_timestamps":null,"correct_trial":0,"condition":"simple","block_num":1,"starting_cell":7,"correct_cell_order":[0,7,5,1],"valid_responses_timestamps":[2085,3353,4629,5953],"moving_through_grid_timestamps":[788,1104,1323,1674,2518,2764,2978,3812,4939,5238,5546],"cell_order_through_grid":[6,5,4,0,1,2,3,7,6,5,1]},{"rt":null,"stimulus":"<div class = centerbox><div class = fixation>+</div></div>","response":null,"trial_id":"test_ITI","exp_stage":"test","block_num":1,"condition":"simple","choices":["b","y","g","r","e"],"ITIParams":null,"trial_type":"html-keyboard-response","trial_index":114,"time_elapsed":4001244,"internal_node_id":"0.0-6.1-12.1","trial_duration":2826.001553295896,"stimulus_duration":2826.001553295896},{"rt":null,"stimulus":"<div class = centerbox><div class = fixation>****</div></div>","response":null,"trial_id":"test_inter-stimulus","exp_stage":"test","condition":"simple","trial_duration":2500,"stimulus_duration":2500,"block_num":1,"choices":["b","y","g","r","e"],"trial_type":"html-keyboard-response","trial_index":115,"time_elapsed":4003749,"internal_node_id":"0.0-6.1-13.1","correct_spatial_judgement_key":null},{"rt":null,"stimulus":"<div class=\"container\"><div class=\"box\"></div><div class=\"box active-box\"></div><div class=\"box\"></div><div class=\"box\"></div><div class=\"box\"></div><div class=\"box\"></div><div class=\"box\"></div><div class=\"box\"></div><div class=\"box\"></div><div class=\"box\"></div><div class=\"box\"></div><div class=\"box\"></div><div class=\"box\"></div><div class=\"box\"></div><div class=\"box\"></div><div class=\"box\"></div></div>","response":null,"trial_id":"test_stim","exp_stage":"test","condition":"simple","trial_duration":1000,"stimulus_duration":1000,"block_num":1,"choices":["b","y","g","r","e"],"trial_type":"html-keyboard-response","trial_index":116,"time_elapsed":4004750,"internal_node_id":"0.0-6.1-14.1","spatial_location":1},{"rt":null,"stimulus":"<div class = centerbox><div class = fixation>****</div></div>","response":null,"trial_id":"test_inter-stimulus","exp_stage":"test","condition":"simple","trial_duration":2500,"stimulus_duration":2500,"block_num":1,"choices":["b","y","g","r","e"],"trial_type":"html-keyboard-response","trial_index":117,"time_elapsed":4007255,"internal_node_id":"0.0-6.1-15.1","correct_spatial_judgement_key":null},{"rt":null,"stimulus":"<div class=\"container\"><div class=\"box\"></div><div class=\"box\"></div><div class=\"box\"></div><div class=\"box\"></div><div class=\"box\"></div><div class=\"box\"></div><div class=\"box\"></div><div class=\"box\"></div><div class=\"box\"></div><div class=\"box\"></div><div class=\"box\"></div><div class=\"box\"></div><div class=\"box\"></div><div class=\"box\"></div><div class=\"box active-box\"></div><div class=\"box\"></div></div>","response":null,"trial_id":"test_stim","exp_stage":"test","condition":"simple","trial_duration":1000,"stimulus_duration":1000,"block_num":1,"choices":["b","y","g","r","e"],"trial_type":"html-keyboard-response","trial_index":118,"time_elapsed":4008262,"internal_node_id":"0.0-6.1-16.1","spatial_location":14},{"rt":null,"stimulus":"<div class = centerbox><div class = fixation>****</div></div>","response":null,"trial_id":"test_inter-stimulus","exp_stage":"test","condition":"simple","trial_duration":2500,"stimulus_duration":2500,"block_num":1,"choices":["b","y","g","r","e"],"trial_type":"html-keyboard-response","trial_index":119,"time_elapsed":4010765,"internal_node_id":"0.0-6.1-17.1","correct_spatial_judgement_key":null},{"rt":null,"stimulus":"<div class=\"container\"><div class=\"box\"></div><div class=\"box\"></div><div class=\"box\"></div><div class=\"box\"></div><div class=\"box\"></div><div class=\"box\"></div><div class=\"box active-box\"></div><div class=\"box\"></div><div class=\"box\"></div><div class=\"box\"></div><div class=\"box\"></div><div class=\"box\"></div><div class=\"box\"></div><div class=\"box\"></div><div class=\"box\"></div><div class=\"box\"></div></div>","response":null,"trial_id":"test_stim","exp_stage":"test","condition":"simple","trial_duration":1000,"stimulus_duration":1000,"block_num":1,"choices":["b","y","g","r","e"],"trial_type":"html-keyboard-response","trial_index":120,"time_elapsed":4011768,"internal_node_id":"0.0-6.1-18.1","spatial_location":6},{"rt":null,"stimulus":"<div class = centerbox><div class = fixation>****</div></div>","response":null,"trial_id":"test_inter-stimulus","exp_stage":"test","condition":"simple","trial_duration":2500,"stimulus_duration":2500,"block_num":1,"choices":["b","y","g","r","e"],"trial_type":"html-keyboard-response","trial_index":121,"time_elapsed":4014273,"internal_node_id":"0.0-6.1-19.1","correct_spatial_judgement_key":null},{"rt":null,"stimulus":"<div class=\"container\"><div class=\"box active-box\"></div><div class=\"box\"></div><div class=\"box\"></div><div class=\"box\"></div><div class=\"box\"></div><div class=\"box\"></div><div class=\"box\"></div><div class=\"box\"></div><div class=\"box\"></div><div class=\"box\"></div><div class=\"box\"></div><div class=\"box\"></div><div class=\"box\"></div><div class=\"box\"></div><div class=\"box\"></div><div class=\"box\"></div></div>","response":null,"trial_id":"test_stim","exp_stage":"test","condition":"simple","trial_duration":1000,"stimulus_duration":1000,"block_num":1,"choices":["b","y","g","r","e"],"trial_type":"html-keyboard-response","trial_index":122,"time_elapsed":4015315,"internal_node_id":"0.0-6.1-20.1","spatial_location":0},{"rt":336,"stimulus":"<div class=\"container\"><div class=\"box\"></div><div class=\"box\"></div><div class=\"box\"></div><div class=\"box\"></div><div class=\"box\"></div><div class=\"box\"></div><div class=\"box\"></div><div class=\"box\"></div><div class=\"box\"></div><div class=\"box\"></div><div class=\"box\"></div><div class=\"box\"></div><div class=\"box\"></div><div class=\"box\"></div><div class=\"box response-active\"></div><div class=\"box\"></div></div>","response":"r","trial_id":"test_trial","exp_stage":"test","trial_duration":7000,"stimulus_duration":7000,"choices":["b","y","g","r","e"],"trial_type":"html-keyboard-response","trial_index":123,"time_elapsed":4022320,"internal_node_id":"0.0-6.1-21.1","valid_responses":[1,6,14,0],"extra_responses":null,"duplicate_responses":null,"duplicate_responses_timestamps":null,"extra_responses_timestamps":null,"correct_trial":0,"condition":"simple","block_num":1,"starting_cell":14,"correct_cell_order":[1,14,6,0],"valid_responses_timestamps":[2181,3305,4310,6224],"moving_through_grid_timestamps":[337,790,1334,1725,2554,2924,3697,3987,4681,4917,5219,5447,5898],"cell_order_through_grid":[10,6,2,1,2,6,10,14,13,12,8,4,0]},{"rt":null,"stimulus":"<div class = centerbox><div class = fixation>+</div></div>","response":null,"trial_id":"test_ITI","exp_stage":"test","block_num":1,"condition":"simple","choices":["b","y","g","r","e"],"ITIParams":null,"trial_type":"html-keyboard-response","trial_index":124,"time_elapsed":4026023,"internal_node_id":"0.0-6.1-22.1","trial_duration":3694.0211916009957,"stimulus_duration":3694.0211916009957},{"rt":null,"stimulus":"<div class = centerbox><div class = fixation>****</div></div>","response":null,"trial_id":"test_inter-stimulus","exp_stage":"test","condition":"simple","trial_duration":2500,"stimulus_duration":2500,"block_num":1,"choices":["b","y","g","r","e"],"trial_type":"html-keyboard-response","trial_index":125,"time_elapsed":4028528,"internal_node_id":"0.0-6.1-23.1","correct_spatial_judgement_key":null},{"rt":null,"stimulus":"<div class=\"container\"><div class=\"box\"></div><div class=\"box active-box\"></div><div class=\"box\"></div><div class=\"box\"></div><div class=\"box\"></div><div class=\"box\"></div><div class=\"box\"></div><div class=\"box\"></div><div class=\"box\"></div><div class=\"box\"></div><div class=\"box\"></div><div class=\"box\"></div><div class=\"box\"></div><div class=\"box\"></div><div class=\"box\"></div><div class=\"box\"></div></div>","response":null,"trial_id":"test_stim","exp_stage":"test","condition":"simple","trial_duration":1000,"stimulus_duration":1000,"block_num":1,"choices":["b","y","g","r","e"],"trial_type":"html-keyboard-response","trial_index":126,"time_elapsed":4029533,"internal_node_id":"0.0-6.1-24.1","spatial_location":1},{"rt":null,"stimulus":"<div class = centerbox><div class = fixation>****</div></div>","response":null,"trial_id":"test_inter-stimulus","exp_stage":"test","condition":"simple","trial_duration":2500,"stimulus_duration":2500,"block_num":1,"choices":["b","y","g","r","e"],"trial_type":"html-keyboard-response","trial_index":127,"time_elapsed":4032039,"internal_node_id":"0.0-6.1-25.1","correct_spatial_judgement_key":null},{"rt":null,"stimulus":"<div class=\"container\"><div class=\"box active-box\"></div><div class=\"box\"></div><div class=\"box\"></div><div class=\"box\"></div><div class=\"box\"></div><div class=\"box\"></div><div class=\"box\"></div><div class=\"box\"></div><div class=\"box\"></div><div class=\"box\"></div><div class=\"box\"></div><div class=\"box\"></div><div class=\"box\"></div><div class=\"box\"></div><div class=\"box\"></div><div class=\"box\"></div></div>","response":null,"trial_id":"test_stim","exp_stage":"test","condition":"simple","trial_duration":1000,"stimulus_duration":1000,"block_num":1,"choices":["b","y","g","r","e"],"trial_type":"html-keyboard-response","trial_index":128,"time_elapsed":4033043,"internal_node_id":"0.0-6.1-26.1","spatial_location":0},{"rt":null,"stimulus":"<div class = centerbox><div class = fixation>****</div></div>","response":null,"trial_id":"test_inter-stimulus","exp_stage":"test","condition":"simple","trial_duration":2500,"stimulus_duration":2500,"block_num":1,"choices":["b","y","g","r","e"],"trial_type":"html-keyboard-response","trial_index":129,"time_elapsed":4035549,"internal_node_id":"0.0-6.1-27.1","correct_spatial_judgement_key":null},{"rt":null,"stimulus":"<div class=\"container\"><div class=\"box\"></div><div class=\"box\"></div><div class=\"box\"></div><div class=\"box\"></div><div class=\"box\"></div><div class=\"box\"></div><div class=\"box\"></div><div class=\"box active-box\"></div><div class=\"box\"></div><div class=\"box\"></div><div class=\"box\"></div><div class=\"box\"></div><div class=\"box\"></div><div class=\"box\"></div><div class=\"box\"></div><div class=\"box\"></div></div>","response":null,"trial_id":"test_stim","exp_stage":"test","condition":"simple","trial_duration":1000,"stimulus_duration":1000,"block_num":1,"choices":["b","y","g","r","e"],"trial_type":"html-keyboard-response","trial_index":130,"time_elapsed":4036550,"internal_node_id":"0.0-6.1-28.1","spatial_location":7},{"rt":null,"stimulus":"<div class = centerbox><div class = fixation>****</div></div>","response":null,"trial_id":"test_inter-stimulus","exp_stage":"test","condition":"simple","trial_duration":2500,"stimulus_duration":2500,"block_num":1,"choices":["b","y","g","r","e"],"trial_type":"html-keyboard-response","trial_index":131,"time_elapsed":4039052,"internal_node_id":"0.0-6.1-29.1","correct_spatial_judgement_key":null},{"rt":null,"stimulus":"<div class=\"container\"><div class=\"box\"></div><div class=\"box\"></div><div class=\"box\"></div><div class=\"box\"></div><div class=\"box\"></div><div class=\"box\"></div><div class=\"box\"></div><div class=\"box\"></div><div class=\"box\"></div><div class=\"box active-box\"></div><div class=\"box\"></div><div class=\"box\"></div><div class=\"box\"></div><div class=\"box\"></div><div class=\"box\"></div><div class=\"box\"></div></div>","response":null,"trial_id":"test_stim","exp_stage":"test","condition":"simple","trial_duration":1000,"stimulus_duration":1000,"block_num":1,"choices":["b","y","g","r","e"],"trial_type":"html-keyboard-response","trial_index":132,"time_elapsed":4040055,"internal_node_id":"0.0-6.1-30.1","spatial_location":9},{"rt":426,"stimulus":"<div class=\"container\"><div class=\"box\"></div><div class=\"box\"></div><div class=\"box\"></div><div class=\"box\"></div><div class=\"box\"></div><div class=\"box\"></div><div class=\"box response-active\"></div><div class=\"box\"></div><div class=\"box\"></div><div class=\"box\"></div><div class=\"box\"></div><div class=\"box\"></div><div class=\"box\"></div><div class=\"box\"></div><div class=\"box\"></div><div class=\"box\"></div></div>","response":"r","trial_id":"test_trial","exp_stage":"test","trial_duration":7000,"stimulus_duration":7000,"choices":["b","y","g","r","e"],"trial_type":"html-keyboard-response","trial_index":133,"time_elapsed":4047055,"internal_node_id":"0.0-6.1-31.1","valid_responses":[1,0,7,9],"extra_responses":null,"duplicate_responses":null,"duplicate_responses_timestamps":null,"extra_responses_timestamps":null,"correct_trial":1,"condition":"simple","block_num":1,"starting_cell":6,"correct_cell_order":[1,0,7,9],"valid_responses_timestamps":[1408,2159,3755,5004],"moving_through_grid_timestamps":[425,987,1766,2547,2873,3140,3410,4048,4360,4723],"cell_order_through_grid":[2,1,0,4,5,6,7,6,5,9]},{"rt":null,"stimulus":"<div class = centerbox><div class = fixation>+</div></div>","response":null,"trial_id":"test_ITI","exp_stage":"test","block_num":1,"condition":"simple","choices":["b","y","g","r","e"],"ITIParams":null,"trial_type":"html-keyboard-response","trial_index":134,"time_elapsed":4054738,"internal_node_id":"0.0-6.1-32.1","trial_duration":7676.1443227372865,"stimulus_duration":7676.1443227372865},{"rt":null,"stimulus":"<div class = centerbox><div class = fixation>****</div></div>","response":null,"trial_id":"test_inter-stimulus","exp_stage":"test","condition":"simple","trial_duration":2500,"stimulus_duration":2500,"block_num":1,"choices":["b","y","g","r","e"],"trial_type":"html-keyboard-response","trial_index":135,"time_elapsed":4057239,"internal_node_id":"0.0-6.1-33.1","correct_spatial_judgement_key":null},{"rt":null,"stimulus":"<div class=\"container\"><div class=\"box\"></div><div class=\"box\"></div><div class=\"box\"></div><div class=\"box\"></div><div class=\"box\"></div><div class=\"box\"></div><div class=\"box\"></div><div class=\"box\"></div><div class=\"box\"></div><div class=\"box\"></div><div class=\"box\"></div><div class=\"box active-box\"></div><div class=\"box\"></div><div class=\"box\"></div><div class=\"box\"></div><div class=\"box\"></div></div>","response":null,"trial_id":"test_stim","exp_stage":"test","condition":"simple","trial_duration":1000,"stimulus_duration":1000,"block_num":1,"choices":["b","y","g","r","e"],"trial_type":"html-keyboard-response","trial_index":136,"time_elapsed":4058246,"internal_node_id":"0.0-6.1-34.1","spatial_location":11},{"rt":null,"stimulus":"<div class = centerbox><div class = fixation>****</div></div>","response":null,"trial_id":"test_inter-stimulus","exp_stage":"test","condition":"simple","trial_duration":2500,"stimulus_duration":2500,"block_num":1,"choices":["b","y","g","r","e"],"trial_type":"html-keyboard-response","trial_index":137,"time_elapsed":4060748,"internal_node_id":"0.0-6.1-35.1","correct_spatial_judgement_key":null},{"rt":null,"stimulus":"<div class=\"container\"><div class=\"box\"></div><div class=\"box\"></div><div class=\"box\"></div><div class=\"box\"></div><div class=\"box active-box\"></div><div class=\"box\"></div><div class=\"box\"></div><div class=\"box\"></div><div class=\"box\"></div><div class=\"box\"></div><div class=\"box\"></div><div class=\"box\"></div><div class=\"box\"></div><div class=\"box\"></div><div class=\"box\"></div><div class=\"box\"></div></div>","response":null,"trial_id":"test_stim","exp_stage":"test","condition":"simple","trial_duration":1000,"stimulus_duration":1000,"block_num":1,"choices":["b","y","g","r","e"],"trial_type":"html-keyboard-response","trial_index":138,"time_elapsed":4061836,"internal_node_id":"0.0-6.1-36.1","spatial_location":4},{"rt":null,"stimulus":"<div class = centerbox><div class = fixation>****</div></div>","response":null,"trial_id":"test_inter-stimulus","exp_stage":"test","condition":"simple","trial_duration":2500,"stimulus_duration":2500,"block_num":1,"choices":["b","y","g","r","e"],"trial_type":"html-keyboard-response","trial_index":139,"time_elapsed":4064342,"internal_node_id":"0.0-6.1-37.1","correct_spatial_judgement_key":null},{"rt":null,"stimulus":"<div class=\"container\"><div class=\"box\"></div><div class=\"box\"></div><div class=\"box\"></div><div class=\"box\"></div><div class=\"box\"></div><div class=\"box\"></div><div class=\"box\"></div><div class=\"box\"></div><div class=\"box\"></div><div class=\"box\"></div><div class=\"box\"></div><div class=\"box\"></div><div class=\"box\"></div><div class=\"box active-box\"></div><div class=\"box\"></div><div class=\"box\"></div></div>","response":null,"trial_id":"test_stim","exp_stage":"test","condition":"simple","trial_duration":1000,"stimulus_duration":1000,"block_num":1,"choices":["b","y","g","r","e"],"trial_type":"html-keyboard-response","trial_index":140,"time_elapsed":4065348,"internal_node_id":"0.0-6.1-38.1","spatial_location":13},{"rt":null,"stimulus":"<div class = centerbox><div class = fixation>****</div></div>","response":null,"trial_id":"test_inter-stimulus","exp_stage":"test","condition":"simple","trial_duration":2500,"stimulus_duration":2500,"block_num":1,"choices":["b","y","g","r","e"],"trial_type":"html-keyboard-response","trial_index":141,"time_elapsed":4067885,"internal_node_id":"0.0-6.1-39.1","correct_spatial_judgement_key":null},{"rt":null,"stimulus":"<div class=\"container\"><div class=\"box\"></div><div class=\"box\"></div><div class=\"box\"></div><div class=\"box\"></div><div class=\"box\"></div><div class=\"box active-box\"></div><div class=\"box\"></div><div class=\"box\"></div><div class=\"box\"></div><div class=\"box\"></div><div class=\"box\"></div><div class=\"box\"></div><div class=\"box\"></div><div class=\"box\"></div><div class=\"box\"></div><div class=\"box\"></div></div>","response":null,"trial_id":"test_stim","exp_stage":"test","condition":"simple","trial_duration":1000,"stimulus_duration":1000,"block_num":1,"choices":["b","y","g","r","e"],"trial_type":"html-keyboard-response","trial_index":142,"time_elapsed":4068886,"internal_node_id":"0.0-6.1-40.1","spatial_location":5},{"rt":531,"stimulus":"<div class=\"container\"><div class=\"box\"></div><div class=\"box\"></div><div class=\"box\"></div><div class=\"box\"></div><div class=\"box\"></div><div class=\"box response-active\"></div><div class=\"box\"></div><div class=\"box\"></div><div class=\"box\"></div><div class=\"box\"></div><div class=\"box\"></div><div class=\"box\"></div><div class=\"box\"></div><div class=\"box\"></div><div class=\"box\"></div><div class=\"box\"></div></div>","response":"b","trial_id":"test_trial","exp_stage":"test","trial_duration":7000,"stimulus_duration":7000,"choices":["b","y","g","r","e"],"trial_type":"html-keyboard-response","trial_index":143,"time_elapsed":4075892,"internal_node_id":"0.0-6.1-41.1","valid_responses":[11,4,13,5],"extra_responses":null,"duplicate_responses":null,"duplicate_responses_timestamps":null,"extra_responses_timestamps":null,"correct_trial":1,"condition":"simple","block_num":1,"starting_cell":5,"correct_cell_order":[11,4,13,5],"valid_responses_timestamps":[1612,3198,4405,5251],"moving_through_grid_timestamps":[532,880,1288,1977,2250,2486,2833,3541,3768,4077,4720,4950],"cell_order_through_grid":[6,7,11,10,9,8,4,8,12,13,9,5]},{"rt":null,"stimulus":"<div class = centerbox><div class = fixation>+</div></div>","response":null,"trial_id":"test_ITI","exp_stage":"test","block_num":1,"condition":"simple","choices":["b","y","g","r","e"],"ITIParams":null,"trial_type":"html-keyboard-response","trial_index":144,"time_elapsed":4080003,"internal_node_id":"0.0-6.1-42.1","trial_duration":3907.9253316988343,"stimulus_duration":3907.9253316988343},{"rt":null,"stimulus":"<div class = centerbox><div class = fixation>****</div></div>","response":null,"trial_id":"test_inter-stimulus","exp_stage":"test","condition":"simple","trial_duration":2500,"stimulus_duration":2500,"block_num":1,"choices":["b","y","g","r","e"],"trial_type":"html-keyboard-response","trial_index":145,"time_elapsed":4082507,"internal_node_id":"0.0-6.1-43.1","correct_spatial_judgement_key":null},{"rt":null,"stimulus":"<div class=\"container\"><div class=\"box\"></div><div class=\"box\"></div><div class=\"box\"></div><div class=\"box\"></div><div class=\"box\"></div><div class=\"box\"></div><div class=\"box\"></div><div class=\"box\"></div><div class=\"box\"></div><div class=\"box\"></div><div class=\"box\"></div><div class=\"box\"></div><div class=\"box\"></div><div class=\"box active-box\"></div><div class=\"box\"></div><div class=\"box\"></div></div>","response":null,"trial_id":"test_stim","exp_stage":"test","condition":"simple","trial_duration":1000,"stimulus_duration":1000,"block_num":1,"choices":["b","y","g","r","e"],"trial_type":"html-keyboard-response","trial_index":146,"time_elapsed":4083511,"internal_node_id":"0.0-6.1-44.1","spatial_location":13},{"rt":null,"stimulus":"<div class = centerbox><div class = fixation>****</div></div>","response":null,"trial_id":"test_inter-stimulus","exp_stage":"test","condition":"simple","trial_duration":2500,"stimulus_duration":2500,"block_num":1,"choices":["b","y","g","r","e"],"trial_type":"html-keyboard-response","trial_index":147,"time_elapsed":4086114,"internal_node_id":"0.0-6.1-45.1","correct_spatial_judgement_key":null},{"rt":null,"stimulus":"<div class=\"container\"><div class=\"box\"></div><div class=\"box\"></div><div class=\"box\"></div><div class=\"box\"></div><div class=\"box\"></div><div class=\"box\"></div><div class=\"box\"></div><div class=\"box\"></div><div class=\"box\"></div><div class=\"box active-box\"></div><div class=\"box\"></div><div class=\"box\"></div><div class=\"box\"></div><div class=\"box\"></div><div class=\"box\"></div><div class=\"box\"></div></div>","response":null,"trial_id":"test_stim","exp_stage":"test","condition":"simple","trial_duration":1000,"stimulus_duration":1000,"block_num":1,"choices":["b","y","g","r","e"],"trial_type":"html-keyboard-response","trial_index":148,"time_elapsed":4087120,"internal_node_id":"0.0-6.1-46.1","spatial_location":9},{"rt":null,"stimulus":"<div class = centerbox><div class = fixation>****</div></div>","response":null,"trial_id":"test_inter-stimulus","exp_stage":"test","condition":"simple","trial_duration":2500,"stimulus_duration":2500,"block_num":1,"choices":["b","y","g","r","e"],"trial_type":"html-keyboard-response","trial_index":149,"time_elapsed":4089626,"internal_node_id":"0.0-6.1-47.1","correct_spatial_judgement_key":null},{"rt":null,"stimulus":"<div class=\"container\"><div class=\"box\"></div><div class=\"box active-box\"></div><div class=\"box\"></div><div class=\"box\"></div><div class=\"box\"></div><div class=\"box\"></div><div class=\"box\"></div><div class=\"box\"></div><div class=\"box\"></div><div class=\"box\"></div><div class=\"box\"></div><div class=\"box\"></div><div class=\"box\"></div><div class=\"box\"></div><div class=\"box\"></div><div class=\"box\"></div></div>","response":null,"trial_id":"test_stim","exp_stage":"test","condition":"simple","trial_duration":1000,"stimulus_duration":1000,"block_num":1,"choices":["b","y","g","r","e"],"trial_type":"html-keyboard-response","trial_index":150,"time_elapsed":4090628,"internal_node_id":"0.0-6.1-48.1","spatial_location":1},{"rt":null,"stimulus":"<div class = centerbox><div class = fixation>****</div></div>","response":null,"trial_id":"test_inter-stimulus","exp_stage":"test","condition":"simple","trial_duration":2500,"stimulus_duration":2500,"block_num":1,"choices":["b","y","g","r","e"],"trial_type":"html-keyboard-response","trial_index":151,"time_elapsed":4093132,"internal_node_id":"0.0-6.1-49.1","correct_spatial_judgement_key":null},{"rt":null,"stimulus":"<div class=\"container\"><div class=\"box\"></div><div class=\"box\"></div><div class=\"box\"></div><div class=\"box\"></div><div class=\"box\"></div><div class=\"box\"></div><div class=\"box\"></div><div class=\"box\"></div><div class=\"box\"></div><div class=\"box\"></div><div class=\"box\"></div><div class=\"box active-box\"></div><div class=\"box\"></div><div class=\"box\"></div><div class=\"box\"></div><div class=\"box\"></div></div>","response":null,"trial_id":"test_stim","exp_stage":"test","condition":"simple","trial_duration":1000,"stimulus_duration":1000,"block_num":1,"choices":["b","y","g","r","e"],"trial_type":"html-keyboard-response","trial_index":152,"time_elapsed":4094178,"internal_node_id":"0.0-6.1-50.1","spatial_location":11},{"rt":744,"stimulus":"<div class=\"container\"><div class=\"box\"></div><div class=\"box\"></div><div class=\"box\"></div><div class=\"box\"></div><div class=\"box\"></div><div class=\"box response-active\"></div><div class=\"box\"></div><div class=\"box\"></div><div class=\"box\"></div><div class=\"box\"></div><div class=\"box\"></div><div class=\"box\"></div><div class=\"box\"></div><div class=\"box\"></div><div class=\"box\"></div><div class=\"box\"></div></div>","response":"y","trial_id":"test_trial","exp_stage":"test","trial_duration":7000,"stimulus_duration":7000,"choices":["b","y","g","r","e"],"trial_type":"html-keyboard-response","trial_index":153,"time_elapsed":4101181,"internal_node_id":"0.0-6.1-51.1","valid_responses":[13,9,1,11],"extra_responses":null,"duplicate_responses":null,"duplicate_responses_timestamps":null,"extra_responses_timestamps":null,"correct_trial":1,"condition":"simple","block_num":1,"starting_cell":5,"correct_cell_order":[13,9,1,11],"valid_responses_timestamps":[1381,2168,3176,4818],"moving_through_grid_timestamps":[744,1050,1773,2531,2790,3539,3788,4179,4440],"cell_order_through_grid":[9,13,9,5,1,2,3,7,11]},{"rt":null,"stimulus":"<div class = centerbox><div class = fixation>+</div></div>","response":null,"trial_id":"test_ITI","exp_stage":"test","block_num":1,"condition":"simple","choices":["b","y","g","r","e"],"ITIParams":null,"trial_type":"html-keyboard-response","trial_index":154,"time_elapsed":4109054,"internal_node_id":"0.0-6.1-52.1","trial_duration":7868.917942844632,"stimulus_duration":7868.917942844632},{"rt":null,"stimulus":"<div class = centerbox><div class = fixation>****</div></div>","response":null,"trial_id":"test_inter-stimulus","exp_stage":"test","condition":"simple","trial_duration":2500,"stimulus_duration":2500,"block_num":1,"choices":["b","y","g","r","e"],"trial_type":"html-keyboard-response","trial_index":155,"time_elapsed":4111559,"internal_node_id":"0.0-6.1-53.1","correct_spatial_judgement_key":null},{"rt":null,"stimulus":"<div class=\"container\"><div class=\"box\"></div><div class=\"box\"></div><div class=\"box\"></div><div class=\"box\"></div><div class=\"box\"></div><div class=\"box\"></div><div class=\"box\"></div><div class=\"box\"></div><div class=\"box\"></div><div class=\"box\"></div><div class=\"box\"></div><div class=\"box\"></div><div class=\"box\"></div><div class=\"box active-box\"></div><div class=\"box\"></div><div class=\"box\"></div></div>","response":null,"trial_id":"test_stim","exp_stage":"test","condition":"simple","trial_duration":1000,"stimulus_duration":1000,"block_num":1,"choices":["b","y","g","r","e"],"trial_type":"html-keyboard-response","trial_index":156,"time_elapsed":4112566,"internal_node_id":"0.0-6.1-54.1","spatial_location":13},{"rt":null,"stimulus":"<div class = centerbox><div class = fixation>****</div></div>","response":null,"trial_id":"test_inter-stimulus","exp_stage":"test","condition":"simple","trial_duration":2500,"stimulus_duration":2500,"block_num":1,"choices":["b","y","g","r","e"],"trial_type":"html-keyboard-response","trial_index":157,"time_elapsed":4115072,"internal_node_id":"0.0-6.1-55.1","correct_spatial_judgement_key":null},{"rt":null,"stimulus":"<div class=\"container\"><div class=\"box\"></div><div class=\"box\"></div><div class=\"box\"></div><div class=\"box\"></div><div class=\"box\"></div><div class=\"box\"></div><div class=\"box\"></div><div class=\"box\"></div><div class=\"box\"></div><div class=\"box\"></div><div class=\"box\"></div><div class=\"box\"></div><div class=\"box active-box\"></div><div class=\"box\"></div><div class=\"box\"></div><div class=\"box\"></div></div>","response":null,"trial_id":"test_stim","exp_stage":"test","condition":"simple","trial_duration":1000,"stimulus_duration":1000,"block_num":1,"choices":["b","y","g","r","e"],"trial_type":"html-keyboard-response","trial_index":158,"time_elapsed":4116077,"internal_node_id":"0.0-6.1-56.1","spatial_location":12},{"rt":null,"stimulus":"<div class = centerbox><div class = fixation>****</div></div>","response":null,"trial_id":"test_inter-stimulus","exp_stage":"test","condition":"simple","trial_duration":2500,"stimulus_duration":2500,"block_num":1,"choices":["b","y","g","r","e"],"trial_type":"html-keyboard-response","trial_index":159,"time_elapsed":4118632,"internal_node_id":"0.0-6.1-57.1","correct_spatial_judgement_key":null},{"rt":null,"stimulus":"<div class=\"container\"><div class=\"box\"></div><div class=\"box\"></div><div class=\"box\"></div><div class=\"box\"></div><div class=\"box\"></div><div class=\"box\"></div><div class=\"box\"></div><div class=\"box active-box\"></div><div class=\"box\"></div><div class=\"box\"></div><div class=\"box\"></div><div class=\"box\"></div><div class=\"box\"></div><div class=\"box\"></div><div class=\"box\"></div><div class=\"box\"></div></div>","response":null,"trial_id":"test_stim","exp_stage":"test","condition":"simple","trial_duration":1000,"stimulus_duration":1000,"block_num":1,"choices":["b","y","g","r","e"],"trial_type":"html-keyboard-response","trial_index":160,"time_elapsed":4119634,"internal_node_id":"0.0-6.1-58.1","spatial_location":7},{"rt":null,"stimulus":"<div class = centerbox><div class = fixation>****</div></div>","response":null,"trial_id":"test_inter-stimulus","exp_stage":"test","condition":"simple","trial_duration":2500,"stimulus_duration":2500,"block_num":1,"choices":["b","y","g","r","e"],"trial_type":"html-keyboard-response","trial_index":161,"time_elapsed":4122139,"internal_node_id":"0.0-6.1-59.1","correct_spatial_judgement_key":null},{"rt":null,"stimulus":"<div class=\"container\"><div class=\"box\"></div><div class=\"box\"></div><div class=\"box\"></div><div class=\"box\"></div><div class=\"box\"></div><div class=\"box\"></div><div class=\"box\"></div><div class=\"box\"></div><div class=\"box\"></div><div class=\"box\"></div><div class=\"box active-box\"></div><div class=\"box\"></div><div class=\"box\"></div><div class=\"box\"></div><div class=\"box\"></div><div class=\"box\"></div></div>","response":null,"trial_id":"test_stim","exp_stage":"test","condition":"simple","trial_duration":1000,"stimulus_duration":1000,"block_num":1,"choices":["b","y","g","r","e"],"trial_type":"html-keyboard-response","trial_index":162,"time_elapsed":4123142,"internal_node_id":"0.0-6.1-60.1","spatial_location":10},{"rt":488,"stimulus":"<div class=\"container\"><div class=\"box\"></div><div class=\"box\"></div><div class=\"box\"></div><div class=\"box\"></div><div class=\"box\"></div><div class=\"box\"></div><div class=\"box\"></div><div class=\"box\"></div><div class=\"box\"></div><div class=\"box\"></div><div class=\"box\"></div><div class=\"box response-active\"></div><div class=\"box\"></div><div class=\"box\"></div><div class=\"box\"></div><div class=\"box\"></div></div>","response":"y","trial_id":"test_trial","exp_stage":"test","trial_duration":7000,"stimulus_duration":7000,"choices":["b","y","g","r","e"],"trial_type":"html-keyboard-response","trial_index":163,"time_elapsed":4130148,"internal_node_id":"0.0-6.1-61.1","valid_responses":[13,12,11,3],"extra_responses":null,"duplicate_responses":null,"duplicate_responses_timestamps":null,"extra_responses_timestamps":null,"correct_trial":0,"condition":"simple","block_num":1,"starting_cell":11,"correct_cell_order":[13,12,7,10],"valid_responses_timestamps":[1631,2368,3954,5243],"moving_through_grid_timestamps":[488,1040,1276,1994,2719,3145,3412,3620,4363,4597],