[{"rt":6885,"response":{"P0_Q0":null,"motor_perm":1,"design_perm":3},"accuracy":[],"trial_type":"survey","trial_index":0,"time_elapsed":6898,"internal_node_id":"0.0-0.0","motor_perm":1,"design_perm":3},{"success":true,"trial_type":"fullscreen","trial_index":1,"time_elapsed":3058906,"internal_node_id":"0.0-1.0"},{"rt":53596,"stimulus":"<div class=\"bigbox\"><div class=\"picture_box\"><p class=\"block-text\"><div class=\"centerbox\" style='width: 60vw; height: auto !important;'>\n    <p class=\"block-text\">During this task, on each trial rectangles will appear on the screen. The rectangles can be either black or white in color.</p>\n    <p class=\"block-text\">On some trials, <b>one</b> of these rectangles will be a <b>vertical white rectangle</b>. We will call this rectangle the 'target'.</p>\n    <div style=\"display: flex; align-items: center; justify-content: center; padding-top: 80px; padding-bottom: 80px;\">\n    <p style=\"width: 70%; font-size: 24px;\">The target looks like: </p>\n    <div style=\"display: flex; justify-content: center; align-items: center; width:100%;\">\n    <div id=\"target\" class=\"box\" style=\"background-color:white; width:40px; height:80px;\"></div>\n    </div>\n    </div>\n    <p class=\"block-text\">Your task is to determine whether a target is absent or present on each trial.</p>\n    <p class=\"block-text\">If you determine a target is <b>absent</b>, press your <b>index finger</b>, and if you determine a target is <b>present</b>, press your <b>middle finger</b>.</p>\n    <p class=\"block-text\">We'll start with a practice round. During practice, you will receive feedback and a reminder of the rules. These will be taken out for the test, so make sure you understand the instructions before moving on.</p>\n    <p class = block-text>Try to respond as quickly and accurately as possible.</p>\n  </div></p></div></div>","response":" ","trial_id":"practice_feedback","exp_stage":"practice","trial_duration":4000,"block_num":0,"trial_type":"html-keyboard-response","trial_index":2,"time_elapsed":3112511,"internal_node_id":"0.0-2.0-0.0","block_level_feedback":{}},{"rt":null,"stimulus":"<div class = centerbox><div class = fixation>+</div></div>","response":null,"trial_id":"practice_ITI","ITIParams":{"min":0,"max":5,"mean":0.5},"block_num":0,"exp_stage":"practice","trial_type":"html-keyboard-response","trial_index":3,"time_elapsed":3113564,"internal_node_id":"0.0-2.0-1.0","trial_duration":1046.3570965271078,"stimulus_duration":1046.3570965271078},{"rt":null,"stimulus":"<div class=\"container\" style=\"position: absolute; left: 50%; top: 50%; transform: translate(-50%, -50%); width: 787.5px; height: 542.5px;\"><div id=\"black-distractor-element\"  class=\"box\" style=\"position: absolute; left: 125.5px; top: 8.928571428571429px; width: 40px; height: 80px; background-color: black;\"></div><div id=\"white-distractor-element\"  class=\"box\" style=\"position: absolute; left: 291px; top: 8.928571428571429px; width: 40px; height: 80px; background-color: white; transform: rotate(90deg); transform-origin: center;\"></div><div id=\"black-distractor-element\"  class=\"box\" style=\"position: absolute; left: 456.5px; top: 8.928571428571429px; width: 40px; height: 80px; background-color: black;\"></div><div id=\"white-distractor-element\"  class=\"box\" style=\"position: absolute; left: 622px; top: 8.928571428571429px; width: 40px; height: 80px; background-color: white; transform: rotate(90deg); transform-origin: center;\"></div><div id=\"white-distractor-element\"  class=\"box\" style=\"position: absolute; left: 125.5px; top: 97.85714285714286px; width: 40px; height: 80px; background-color: white; transform: rotate(90deg); transform-origin: center;\"></div><div id=\"white-distractor-element\"  class=\"box\" style=\"position: absolute; left: 291px; top: 97.85714285714286px; width: 40px; height: 80px; background-color: white; transform: rotate(90deg); transform-origin: center;\"></div><div id=\"white-distractor-element\"  class=\"box\" style=\"position: absolute; left: 456.5px; top: 97.85714285714286px; width: 40px; height: 80px; background-color: white; transform: rotate(90deg); transform-origin: center;\"></div><div id=\"white-distractor-element\"  class=\"box\" style=\"position: absolute; left: 622px; top: 97.85714285714286px; width: 40px; height: 80px; background-color: white; transform: rotate(90deg); transform-origin: center;\"></div><div id=\"black-distractor-element\"  class=\"box\" style=\"position: absolute; left: 125.5px; top: 186.78571428571428px; width: 40px; height: 80px; background-color: black;\"></div><div id=\"black-distractor-element\"  class=\"box\" style=\"position: absolute; left: 291px; top: 186.78571428571428px; width: 40px; height: 80px; background-color: black;\"></div><div id=\"black-distractor-element\"  class=\"box\" style=\"position: absolute; left: 456.5px; top: 186.78571428571428px; width: 40px; height: 80px; background-color: black;\"></div><div id=\"black-distractor-element\"  class=\"box\" style=\"position: absolute; left: 622px; top: 186.78571428571428px; width: 40px; height: 80px; background-color: black;\"></div><div id=\"target\" class=\"box\" style=\"position: absolute; left: 125.5px; top: 275.7142857142857px; width: 40px; height: 80px; background-color: white;\"></div><div id=\"black-distractor-element\"  class=\"box\" style=\"position: absolute; left: 291px; top: 275.7142857142857px; width: 40px; height: 80px; background-color: black;\"></div><div id=\"black-distractor-element\"  class=\"box\" style=\"position: absolute; left: 456.5px; top: 275.7142857142857px; width: 40px; height: 80px; background-color: black;\"></div><div id=\"white-distractor-element\"  class=\"box\" style=\"position: absolute; left: 622px; top: 275.7142857142857px; width: 40px; height: 80px; background-color: white; transform: rotate(90deg); transform-origin: center;\"></div><div id=\"black-distractor-element\"  class=\"box\" style=\"position: absolute; left: 125.5px; top: 364.64285714285717px; width: 40px; height: 80px; background-color: black;\"></div><div id=\"white-distractor-element\"  class=\"box\" style=\"position: absolute; left: 291px; top: 364.64285714285717px; width: 40px; height: 80px; background-color: white; transform: rotate(90deg); transform-origin: center;\"></div><div id=\"black-distractor-element\"  class=\"box\" style=\"position: absolute; left: 456.5px; top: 364.64285714285717px; width: 40px; height: 80px; background-color: black;\"></div><div id=\"black-distractor-element\"  class=\"box\" style=\"position: absolute; left: 622px; top: 364.64285714285717px; width: 40px; height: 80px; background-color: black;\"></div><div id=\"white-distractor-element\"  class=\"box\" style=\"position: absolute; left: 125.5px; top: 453.57142857142856px; width: 40px; height: 80px; background-color: white; transform: rotate(90deg); transform-origin: center;\"></div><div id=\"black-distractor-element\"  class=\"box\" style=\"position: absolute; left: 291px; top: 453.57142857142856px; width: 40px; height: 80px; background-color: black;\"></div><div id=\"black-distractor-element\"  class=\"box\" style=\"position: absolute; left: 456.5px; top: 453.57142857142856px; width: 40px; height: 80px; background-color: black;\"></div><div id=\"black-distractor-element\"  class=\"box\" style=\"position: absolute; left: 622px; top: 453.57142857142856px; width: 40px; height: 80px; background-color: black;\"></div></div>","response":null,"trial_id":"practice_trial","choices":["g","y"],"trial_duration":2000,"stimulus_duration":1500,"block_num":0,"trial_type":"html-keyboard-response","trial_index":4,"time_elapsed":3115571,"internal_node_id":"0.0-2.0-2.0","target_present":1,"num_stimuli":24,"condition":"conjunction","exp_stage":"practice","correct_response":"g","correct_trial":null,"order_and_color_of_rectangles":["black vertical","white horizontal","black vertical","white horizontal","white horizontal","white horizontal","white horizontal","white horizontal","black vertical","black vertical","black vertical","black vertical","white vertical","black vertical","black vertical","white horizontal","black vertical","white horizontal","black vertical","black vertical","white horizontal","black vertical","black vertical","black vertical"],"target_rectangle_location":12},{"rt":null,"stimulus":"<div class=center-box><p class=center-text>Respond Faster!</div></div>","response":null,"exp_stage":"practice","trial_id":"practice_feedback","trial_duration":500,"stimulus_duration":500,"block_num":0,"trial_type":"html-keyboard-response","trial_index":5,"time_elapsed":3116074,"internal_node_id":"0.0-2.0-3.0"},{"rt":null,"stimulus":"<div class = centerbox><div class = fixation>+</div></div>","response":null,"trial_id":"practice_ITI","ITIParams":{"min":0,"max":5,"mean":0.5},"block_num":0,"exp_stage":"practice","trial_type":"html-keyboard-response","trial_index":6,"time_elapsed":3117118,"internal_node_id":"0.0-2.0-4.0","trial_duration":1037.0385262944178,"stimulus_duration":1037.0385262944178},{"rt":1055,"stimulus":"<div class=\"container\" style=\"position: absolute; left: 50%; top: 50%; transform: translate(-50%, -50%); width: 787.5px; height: 542.5px;\"><div id=\"black-distractor-element\" class=\"box\" style=\"position: absolute; left: 125.5px; top: 8.928571428571429px; width: 40px; height: 80px; background-color: black;\"></div><div id=\"black-distractor-element\" class=\"box\" style=\"position: absolute; left: 291px; top: 8.928571428571429px; width: 40px; height: 80px; background-color: black;\"></div><div id=\"black-distractor-element\" class=\"box\" style=\"position: absolute; left: 456.5px; top: 8.928571428571429px; width: 40px; height: 80px; background-color: black;\"></div><div id=\"black-distractor-element\" class=\"box\" style=\"position: absolute; left: 622px; top: 8.928571428571429px; width: 40px; height: 80px; background-color: black;\"></div><div id=\"black-distractor-element\" class=\"box\" style=\"position: absolute; left: 125.5px; top: 97.85714285714286px; width: 40px; height: 80px; background-color: black;\"></div><div id=\"black-distractor-element\" class=\"box\" style=\"position: absolute; left: 291px; top: 97.85714285714286px; width: 40px; height: 80px; background-color: black;\"></div><div id=\"black-distractor-element\" class=\"box\" style=\"position: absolute; left: 456.5px; top: 97.85714285714286px; width: 40px; height: 80px; background-color: black;\"></div><div id=\"black-distractor-element\" class=\"box\" style=\"position: absolute; left: 622px; top: 97.85714285714286px; width: 40px; height: 80px; background-color: black;\"></div><div id=\"black-distractor-element\" class=\"box\" style=\"position: absolute; left: 125.5px; top: 186.78571428571428px; width: 40px; height: 80px; background-color: black;\"></div><div id=\"black-distractor-element\" class=\"box\" style=\"position: absolute; left: 291px; top: 186.78571428571428px; width: 40px; height: 80px; background-color: black;\"></div><div id=\"black-distractor-element\" class=\"box\" style=\"position: absolute; left: 456.5px; top: 186.78571428571428px; width: 40px; height: 80px; background-color: black;\"></div><div id=\"black-distractor-element\" class=\"box\" style=\"position: absolute; left: 622px; top: 186.78571428571428px; width: 40px; height: 80px; background-color: black;\"></div><div id=\"black-distractor-element\" class=\"box\" style=\"position: absolute; left: 125.5px; top: 275.7142857142857px; width: 40px; height: 80px; background-color: black;\"></div><div id=\"black-distractor-element\" class=\"box\" style=\"position: absolute; left: 291px; top: 275.7142857142857px; width: 40px; height: 80px; background-color: black;\"></div><div id=\"black-distractor-element\" class=\"box\" style=\"position: absolute; left: 456.5px; top: 275.7142857142857px; width: 40px; height: 80px; background-color: black;\"></div><div id=\"black-distractor-element\" class=\"box\" style=\"position: absolute; left: 622px; top: 275.7142857142857px; width: 40px; height: 80px; background-color: black;\"></div><div id=\"black-distractor-element\" class=\"box\" style=\"position: absolute; left: 125.5px; top: 364.64285714285717px; width: 40px; height: 80px; background-color: black;\"></div><div id=\"black-distractor-element\" class=\"box\" style=\"position: absolute; left: 291px; top: 364.64285714285717px; width: 40px; height: 80px; background-color: black;\"></div><div id=\"black-distractor-element\" class=\"box\" style=\"position: absolute; left: 456.5px; top: 364.64285714285717px; width: 40px; height: 80px; background-color: black;\"></div><div id=\"black-distractor-element\" class=\"box\" style=\"position: absolute; left: 622px; top: 364.64285714285717px; width: 40px; height: 80px; background-color: black;\"></div><div id=\"black-distractor-element\" class=\"box\" style=\"position: absolute; left: 125.5px; top: 453.57142857142856px; width: 40px; height: 80px; background-color: black;\"></div><div id=\"black-distractor-element\" class=\"box\" style=\"position: absolute; left: 291px; top: 453.57142857142856px; width: 40px; height: 80px; background-color: black;\"></div><div id=\"black-distractor-element\" class=\"box\" style=\"position: absolute; left: 456.5px; top: 453.57142857142856px; width: 40px; height: 80px; background-color: black;\"></div><div id=\"black-distractor-element\" class=\"box\" style=\"position: absolute; left: 622px; top: 453.57142857142856px; width: 40px; height: 80px; background-color: black;\"></div></div>","response":"g","trial_id":"practice_trial","choices":["g","y"],"trial_duration":2000,"stimulus_duration":1500,"block_num":0,"trial_type":"html-keyboard-response","trial_index":7,"time_elapsed":3119125,"internal_node_id":"0.0-2.0-5.0","target_present":0,"num_stimuli":24,"condition":"feature","exp_stage":"practice","correct_response":"y","correct_trial":0,"order_and_color_of_rectangles":["black vertical","black vertical","black vertical","black vertical","black vertical","black vertical","black vertical","black vertical","black vertical","black vertical","black vertical","black vertical","black vertical","black vertical","black vertical","black vertical","black vertical","black vertical","black vertical","black vertical","black vertical","black vertical","black vertical","black vertical"],"target_rectangle_location":null},{"rt":null,"stimulus":"<div class=center-box><p class=center-text>Incorrect!</div></div>","response":null,"exp_stage":"practice","trial_id":"practice_feedback","trial_duration":500,"stimulus_duration":500,"block_num":0,"trial_type":"html-keyboard-response","trial_index":8,"time_elapsed":3119628,"internal_node_id":"0.0-2.0-6.0"},{"rt":null,"stimulus":"<div class = centerbox><div class = fixation>+</div></div>","response":null,"trial_id":"practice_ITI","ITIParams":{"min":0,"max":5,"mean":0.5},"block_num":0,"exp_stage":"practice","trial_type":"html-keyboard-response","trial_index":9,"time_elapsed":3123777,"internal_node_id":"0.0-2.0-7.0","trial_duration":4144.500892794191,"stimulus_duration":4144.500892794191},{"rt":517,"stimulus":"<div class=\"container\" style=\"position: absolute; left: 50%; top: 50%; transform: translate(-50%, -50%); width: 787.5px; height: 542.5px;\"><div id=\"black-distractor-element\" class=\"box\" style=\"position: absolute; left: 235.83333333333334px; top: 44.5px; width: 40px; height: 80px; background-color: black;\"></div><div id=\"black-distractor-element\" class=\"box\" style=\"position: absolute; left: 511.6666666666667px; top: 44.5px; width: 40px; height: 80px; background-color: black;\"></div><div id=\"black-distractor-element\" class=\"box\" style=\"position: absolute; left: 235.83333333333334px; top: 169px; width: 40px; height: 80px; background-color: black;\"></div><div id=\"black-distractor-element\" class=\"box\" style=\"position: absolute; left: 511.6666666666667px; top: 169px; width: 40px; height: 80px; background-color: black;\"></div><div id=\"black-distractor-element\" class=\"box\" style=\"position: absolute; left: 235.83333333333334px; top: 293.5px; width: 40px; height: 80px; background-color: black;\"></div><div id=\"black-distractor-element\" class=\"box\" style=\"position: absolute; left: 511.6666666666667px; top: 293.5px; width: 40px; height: 80px; background-color: black;\"></div><div id=\"target\" class=\"box\" style=\"position: absolute; left: 235.83333333333334px; top: 418px; width: 40px; height: 80px; background-color: white;\"></div><div id=\"black-distractor-element\" class=\"box\" style=\"position: absolute; left: 511.6666666666667px; top: 418px; width: 40px; height: 80px; background-color: black;\"></div></div>","response":"y","trial_id":"practice_trial","choices":["g","y"],"trial_duration":2000,"stimulus_duration":1500,"block_num":0,"trial_type":"html-keyboard-response","trial_index":10,"time_elapsed":3125784,"internal_node_id":"0.0-2.0-8.0","target_present":1,"num_stimuli":8,"condition":"feature","exp_stage":"practice","correct_response":"g","correct_trial":0,"order_and_color_of_rectangles":["black vertical","black vertical","black vertical","black vertical","black vertical","black vertical","white vertical","black vertical"],"target_rectangle_location":6},{"rt":null,"stimulus":"<div class=center-box><p class=center-text>Incorrect!</div></div>","response":null,"exp_stage":"practice","trial_id":"practice_feedback","trial_duration":500,"stimulus_duration":500,"block_num":0,"trial_type":"html-keyboard-response","trial_index":11,"time_elapsed":3126290,"internal_node_id":"0.0-2.0-9.0"},{"rt":null,"stimulus":"<div class = centerbox><div class = fixation>+</div></div>","response":null,"trial_id":"practice_ITI","ITIParams":{"min":0,"max":5,"mean":0.5},"block_num":0,"exp_stage":"practice","trial_type":"html-keyboard-response","trial_index":12,"time_elapsed":3127170,"internal_node_id":"0.0-2.0-10.0","trial_duration":873.3197543689583,"stimulus_duration":873.3197543689583},{"rt":1985,"stimulus":"<div class=\"container\" style=\"position: absolute; left: 50%; top: 50%; transform: translate(-50%, -50%); width: 787.5px; height: 542.5px;\"><div id=\"white-distractor-element\"  class=\"box\" style=\"position: absolute; left: 235.83333333333334px; top: 44.5px; width: 40px; height: 80px; background-color: white; transform: rotate(90deg); transform-origin: center;\"></div><div id=\"black-distractor-element\"  class=\"box\" style=\"position: absolute; left: 511.6666666666667px; top: 44.5px; width: 40px; height: 80px; background-color: black;\"></div><div id=\"black-distractor-element\"  class=\"box\" style=\"position: absolute; left: 235.83333333333334px; top: 169px; width: 40px; height: 80px; background-color: black;\"></div><div id=\"white-distractor-element\"  class=\"box\" style=\"position: absolute; left: 511.6666666666667px; top: 169px; width: 40px; height: 80px; background-color: white; transform: rotate(90deg); transform-origin: center;\"></div><div id=\"white-distractor-element\"  class=\"box\" style=\"position: absolute; left: 235.83333333333334px; top: 293.5px; width: 40px; height: 80px; background-color: white; transform: rotate(90deg); transform-origin: center;\"></div><div id=\"black-distractor-element\"  class=\"box\" style=\"position: absolute; left: 511.6666666666667px; top: 293.5px; width: 40px; height: 80px; background-color: black;\"></div><div id=\"white-distractor-element\"  class=\"box\" style=\"position: absolute; left: 235.83333333333334px; top: 418px; width: 40px; height: 80px; background-color: white; transform: rotate(90deg); transform-origin: center;\"></div><div id=\"black-distractor-element\"  class=\"box\" style=\"position: absolute; left: 511.6666666666667px; top: 418px; width: 40px; height: 80px; background-color: black;\"></div></div>","response":"y","trial_id":"practice_trial","choices":["g","y"],"trial_duration":2000,"stimulus_duration":1500,"block_num":0,"trial_type":"html-keyboard-response","trial_index":13,"time_elapsed":3129176,"internal_node_id":"0.0-2.0-11.0","target_present":0,"num_stimuli":8,"condition":"conjunction","exp_stage":"practice","correct_response":"y","correct_trial":1,"order_and_color_of_rectangles":["white horizontal","black vertical","black vertical","white horizontal","white horizontal","black vertical","white horizontal","black vertical"],"target_rectangle_location":null},{"rt":null,"stimulus":"<div class=center-box><p class=center-text>Correct!</div></div>","response":null,"exp_stage":"practice","trial_id":"practice_feedback","trial_duration":500,"stimulus_duration":500,"block_num":0,"trial_type":"html-keyboard-response","trial_index":14,"time_elapsed":3129682,"internal_node_id":"0.0-2.0-12.0"},{"rt":25663,"stimulus":"<div class=\"bigbox\"><div class=\"picture_box\"><p class=\"block-text\"><div class = centerbox><p class = block-text>Please take a short break.</p><p class=\"block-text\">Your accuracy was low.</p>\n    <ul style=\"text-align: left; font-size: 24px;\">\n      <li>Absent: Index</li>\n      <li>Present: Middle</li>\n    </ul><p class=\"block-text\">Respond on every trial.</p></div></p></div></div>","response":" ","trial_id":"practice_feedback","exp_stage":"practice","trial_duration":4000,"block_num":0,"trial_type":"html-keyboard-response","trial_index":15,"time_elapsed":3155347,"internal_node_id":"0.0-2.1-0.1","block_level_feedback":{"accuracy":{"value":0.25,"text":"<p class=\"block-text\">Your accuracy was low.</p>\n    <ul style=\"text-align: left; font-size: 24px;\">\n      <li>Absent: Index</li>\n      <li>Present: Middle</li>\n    </ul>"},"missed_responses":{"value":0.25,"text":"<p class=\"block-text\">Respond on every trial.</p>"}}},{"rt":null,"stimulus":"<div class = centerbox><div class = fixation>+</div></div>","response":null,"trial_id":"practice_ITI","ITIParams":{"min":0,"max":5,"mean":0.5},"block_num":1,"exp_stage":"practice","trial_type":"html-keyboard-response","trial_index":16,"time_elapsed":3160376,"internal_node_id":"0.0-2.1-1.1","trial_duration":5026.944044895108,"stimulus_duration":5026.944044895108},{"rt":1301,"stimulus":"<div class=\"container\" style=\"position: absolute; left: 50%; top: 50%; transform: translate(-50%, -50%); width: 1058.3999999999999px; height: 661.5px;\"><div id=\"black-distractor-element\"  class=\"box\" style=\"position: absolute; left: 326.13333333333327px; top: 68.3px; width: 40px; height: 80px; background-color: black;\"></div><div id=\"black-distractor-element\"  class=\"box\" style=\"position: absolute; left: 692.2666666666665px; top: 68.3px; width: 40px; height: 80px; background-color: black;\"></div><div id=\"black-distractor-element\"  class=\"box\" style=\"position: absolute; left: 326.13333333333327px; top: 216.6px; width: 40px; height: 80px; background-color: black;\"></div><div id=\"black-distractor-element\"  class=\"box\" style=\"position: absolute; left: 692.2666666666665px; top: 216.6px; width: 40px; height: 80px; background-color: black;\"></div><div id=\"black-distractor-element\"  class=\"box\" style=\"position: absolute; left: 326.13333333333327px; top: 364.9px; width: 40px; height: 80px; background-color: black;\"></div><div id=\"white-distractor-element\"  class=\"box\" style=\"position: absolute; left: 692.2666666666665px; top: 364.9px; width: 40px; height: 80px; background-color: white; transform: rotate(90deg); transform-origin: center;\"></div><div id=\"black-distractor-element\"  class=\"box\" style=\"position: absolute; left: 326.13333333333327px; top: 513.2px; width: 40px; height: 80px; background-color: black;\"></div><div id=\"white-distractor-element\"  class=\"box\" style=\"position: absolute; left: 692.2666666666665px; top: 513.2px; width: 40px; height: 80px; background-color: white; transform: rotate(90deg); transform-origin: center;\"></div></div>","response":"y","trial_id":"practice_trial","choices":["g","y"],"trial_duration":2000,"stimulus_duration":1500,"block_num":1,"trial_type":"html-keyboard-response","trial_index":17,"time_elapsed":3162383,"internal_node_id":"0.0-2.1-2.1","target_present":0,"num_stimuli":8,"condition":"conjunction","exp_stage":"practice","correct_response":"y","correct_trial":1,"order_and_color_of_rectangles":["black vertical","black vertical","black vertical","black vertical","black vertical","white horizontal","black vertical","white horizontal"],"target_rectangle_location":null},{"rt":null,"stimulus":"<div class=center-box><p class=center-text>Correct!</div></div>","response":null,"exp_stage":"practice","trial_id":"practice_feedback","trial_duration":500,"stimulus_duration":500,"block_num":1,"trial_type":"html-keyboard-response","trial_index":18,"time_elapsed":3162890,"internal_node_id":"0.0-2.1-3.1"},{"rt":null,"stimulus":"<div class = centerbox><div class = fixation>+</div></div>","response":null,"trial_id":"practice_ITI","ITIParams":{"min":0,"max":5,"mean":0.5},"block_num":1,"exp_stage":"practice","trial_type":"html-keyboard-response","trial_index":19,"time_elapsed":3163964,"internal_node_id":"0.0-2.1-4.1","trial_duration":1070.9704895014486,"stimulus_duration":1070.9704895014486},{"rt":948,"stimulus":"<div class=\"container\" style=\"position: absolute; left: 50%; top: 50%; transform: translate(-50%, -50%); width: 1058.3999999999999px; height: 661.5px;\"><div id=\"black-distractor-element\" class=\"box\" style=\"position: absolute; left: 179.67999999999998px; top: 25.928571428571427px; width: 40px; height: 80px; background-color: black;\"></div><div id=\"black-distractor-element\" class=\"box\" style=\"position: absolute; left: 399.35999999999996px; top: 25.928571428571427px; width: 40px; height: 80px; background-color: black;\"></div><div id=\"black-distractor-element\" class=\"box\" style=\"position: absolute; left: 619.04px; top: 25.928571428571427px; width: 40px; height: 80px; background-color: black;\"></div><div id=\"black-distractor-element\" class=\"box\" style=\"position: absolute; left: 838.7199999999999px; top: 25.928571428571427px; width: 40px; height: 80px; background-color: black;\"></div><div id=\"black-distractor-element\" class=\"box\" style=\"position: absolute; left: 179.67999999999998px; top: 131.85714285714286px; width: 40px; height: 80px; background-color: black;\"></div><div id=\"black-distractor-element\" class=\"box\" style=\"position: absolute; left: 399.35999999999996px; top: 131.85714285714286px; width: 40px; height: 80px; background-color: black;\"></div><div id=\"black-distractor-element\" class=\"box\" style=\"position: absolute; left: 619.04px; top: 131.85714285714286px; width: 40px; height: 80px; background-color: black;\"></div><div id=\"black-distractor-element\" class=\"box\" style=\"position: absolute; left: 838.7199999999999px; top: 131.85714285714286px; width: 40px; height: 80px; background-color: black;\"></div><div id=\"black-distractor-element\" class=\"box\" style=\"position: absolute; left: 179.67999999999998px; top: 237.78571428571428px; width: 40px; height: 80px; background-color: black;\"></div><div id=\"black-distractor-element\" class=\"box\" style=\"position: absolute; left: 399.35999999999996px; top: 237.78571428571428px; width: 40px; height: 80px; background-color: black;\"></div><div id=\"black-distractor-element\" class=\"box\" style=\"position: absolute; left: 619.04px; top: 237.78571428571428px; width: 40px; height: 80px; background-color: black;\"></div><div id=\"black-distractor-element\" class=\"box\" style=\"position: absolute; left: 838.7199999999999px; top: 237.78571428571428px; width: 40px; height: 80px; background-color: black;\"></div><div id=\"black-distractor-element\" class=\"box\" style=\"position: absolute; left: 179.67999999999998px; top: 343.7142857142857px; width: 40px; height: 80px; background-color: black;\"></div><div id=\"black-distractor-element\" class=\"box\" style=\"position: absolute; left: 399.35999999999996px; top: 343.7142857142857px; width: 40px; height: 80px; background-color: black;\"></div><div id=\"black-distractor-element\" class=\"box\" style=\"position: absolute; left: 619.04px; top: 343.7142857142857px; width: 40px; height: 80px; background-color: black;\"></div><div id=\"black-distractor-element\" class=\"box\" style=\"position: absolute; left: 838.7199999999999px; top: 343.7142857142857px; width: 40px; height: 80px; background-color: black;\"></div><div id=\"black-distractor-element\" class=\"box\" style=\"position: absolute; left: 179.67999999999998px; top: 449.6428571428571px; width: 40px; height: 80px; background-color: black;\"></div><div id=\"black-distractor-element\" class=\"box\" style=\"position: absolute; left: 399.35999999999996px; top: 449.6428571428571px; width: 40px; height: 80px; background-color: black;\"></div><div id=\"black-distractor-element\" class=\"box\" style=\"position: absolute; left: 619.04px; top: 449.6428571428571px; width: 40px; height: 80px; background-color: black;\"></div><div id=\"black-distractor-element\" class=\"box\" style=\"position: absolute; left: 838.7199999999999px; top: 449.6428571428571px; width: 40px; height: 80px; background-color: black;\"></div><div id=\"black-distractor-element\" class=\"box\" style=\"position: absolute; left: 179.67999999999998px; top: 555.5714285714286px; width: 40px; height: 80px; background-color: black;\"></div><div id=\"black-distractor-element\" class=\"box\" style=\"position: absolute; left: 399.35999999999996px; top: 555.5714285714286px; width: 40px; height: 80px; background-color: black;\"></div><div id=\"black-distractor-element\" class=\"box\" style=\"position: absolute; left: 619.04px; top: 555.5714285714286px; width: 40px; height: 80px; background-color: black;\"></div><div id=\"black-distractor-element\" class=\"box\" style=\"position: absolute; left: 838.7199999999999px; top: 555.5714285714286px; width: 40px; height: 80px; background-color: black;\"></div></div>","response":"y","trial_id":"practice_trial","choices":["g","y"],"trial_duration":2000,"stimulus_duration":1500,"block_num":1,"trial_type":"html-keyboard-response","trial_index":20,"time_elapsed":3165971,"internal_node_id":"0.0-2.1-5.1","target_present":0,"num_stimuli":24,"condition":"feature","exp_stage":"practice","correct_response":"y","correct_trial":1,"order_and_color_of_rectangles":["black vertical","black vertical","black vertical","black vertical","black vertical","black vertical","black vertical","black vertical","black vertical","black vertical","black vertical","black vertical","black vertical","black vertical","black vertical","black vertical","black vertical","black vertical","black vertical","black vertical","black vertical","black vertical","black vertical","black vertical"],"target_rectangle_location":null},{"rt":null,"stimulus":"<div class=center-box><p class=center-text>Correct!</div></div>","response":null,"exp_stage":"practice","trial_id":"practice_feedback","trial_duration":500,"stimulus_duration":500,"block_num":1,"trial_type":"html-keyboard-response","trial_index":21,"time_elapsed":3166477,"internal_node_id":"0.0-2.1-6.1"},{"rt":null,"stimulus":"<div class = centerbox><div class = fixation>+</div></div>","response":null,"trial_id":"practice_ITI","ITIParams":{"min":0,"max":5,"mean":0.5},"block_num":1,"exp_stage":"practice","trial_type":"html-keyboard-response","trial_index":22,"time_elapsed":3167560,"internal_node_id":"0.0-2.1-7.1","trial_duration":1077.1106949912569,"stimulus_duration":1077.1106949912569},{"rt":1143,"stimulus":"<div class=\"container\" style=\"position: absolute; left: 50%; top: 50%; transform: translate(-50%, -50%); width: 1058.3999999999999px; height: 661.5px;\"><div id=\"white-distractor-element\"  class=\"box\" style=\"position: absolute; left: 179.67999999999998px; top: 25.928571428571427px; width: 40px; height: 80px; background-color: white; transform: rotate(90deg); transform-origin: center;\"></div><div id=\"white-distractor-element\"  class=\"box\" style=\"position: absolute; left: 399.35999999999996px; top: 25.928571428571427px; width: 40px; height: 80px; background-color: white; transform: rotate(90deg); transform-origin: center;\"></div><div id=\"black-distractor-element\"  class=\"box\" style=\"position: absolute; left: 619.04px; top: 25.928571428571427px; width: 40px; height: 80px; background-color: black;\"></div><div id=\"black-distractor-element\"  class=\"box\" style=\"position: absolute; left: 838.7199999999999px; top: 25.928571428571427px; width: 40px; height: 80px; background-color: black;\"></div><div id=\"white-distractor-element\"  class=\"box\" style=\"position: absolute; left: 179.67999999999998px; top: 131.85714285714286px; width: 40px; height: 80px; background-color: white; transform: rotate(90deg); transform-origin: center;\"></div><div id=\"black-distractor-element\"  class=\"box\" style=\"position: absolute; left: 399.35999999999996px; top: 131.85714285714286px; width: 40px; height: 80px; background-color: black;\"></div><div id=\"black-distractor-element\"  class=\"box\" style=\"position: absolute; left: 619.04px; top: 131.85714285714286px; width: 40px; height: 80px; background-color: black;\"></div><div id=\"black-distractor-element\"  class=\"box\" style=\"position: absolute; left: 838.7199999999999px; top: 131.85714285714286px; width: 40px; height: 80px; background-color: black;\"></div><div id=\"black-distractor-element\"  class=\"box\" style=\"position: absolute; left: 179.67999999999998px; top: 237.78571428571428px; width: 40px; height: 80px; background-color: black;\"></div><div id=\"black-distractor-element\"  class=\"box\" style=\"position: absolute; left: 399.35999999999996px; top: 237.78571428571428px; width: 40px; height: 80px; background-color: black;\"></div><div id=\"black-distractor-element\"  class=\"box\" style=\"position: absolute; left: 619.04px; top: 237.78571428571428px; width: 40px; height: 80px; background-color: black;\"></div><div id=\"white-distractor-element\"  class=\"box\" style=\"position: absolute; left: 838.7199999999999px; top: 237.78571428571428px; width: 40px; height: 80px; background-color: white; transform: rotate(90deg); transform-origin: center;\"></div><div id=\"white-distractor-element\"  class=\"box\" style=\"position: absolute; left: 179.67999999999998px; top: 343.7142857142857px; width: 40px; height: 80px; background-color: white; transform: rotate(90deg); transform-origin: center;\"></div><div id=\"black-distractor-element\"  class=\"box\" style=\"position: absolute; left: 399.35999999999996px; top: 343.7142857142857px; width: 40px; height: 80px; background-color: black;\"></div><div id=\"white-distractor-element\"  class=\"box\" style=\"position: absolute; left: 619.04px; top: 343.7142857142857px; width: 40px; height: 80px; background-color: white; transform: rotate(90deg); transform-origin: center;\"></div><div id=\"white-distractor-element\"  class=\"box\" style=\"position: absolute; left: 838.7199999999999px; top: 343.7142857142857px; width: 40px; height: 80px; background-color: white; transform: rotate(90deg); transform-origin: center;\"></div><div id=\"white-distractor-element\"  class=\"box\" style=\"position: absolute; left: 179.67999999999998px; top: 449.6428571428571px; width: 40px; height: 80px; background-color: white; transform: rotate(90deg); transform-origin: center;\"></div><div id=\"black-distractor-element\"  class=\"box\" style=\"position: absolute; left: 399.35999999999996px; top: 449.6428571428571px; width: 40px; height: 80px; background-color: black;\"></div><div id=\"white-distractor-element\"  class=\"box\" style=\"position: absolute; left: 619.04px; top: 449.6428571428571px; width: 40px; height: 80px; background-color: white; transform: rotate(90deg); transform-origin: center;\"></div><div id=\"black-distractor-element\"  class=\"box\" style=\"position: absolute; left: 838.7199999999999px; top: 449.6428571428571px; width: 40px; height: 80px; background-color: black;\"></div><div id=\"white-distractor-element\"  class=\"box\" style=\"position: absolute; left: 179.67999999999998px; top: 555.5714285714286px; width: 40px; height: 80px; background-color: white; transform: rotate(90deg); transform-origin: center;\"></div><div id=\"black-distractor-element\"  class=\"box\" style=\"position: absolute; left: 399.35999999999996px; top: 555.5714285714286px; width: 40px; height: 80px; background-color: black;\"></div><div id=\"target\" class=\"box\" style=\"position: absolute; left: 619.04px; top: 555.5714285714286px; width: 40px; height: 80px; background-color: white;\"></div><div id=\"black-distractor-element\"  class=\"box\" style=\"position: absolute; left: 838.7199999999999px; top: 555.5714285714286px; width: 40px; height: 80px; background-color: black;\"></div></div>","response":"y","trial_id":"practice_trial","choices":["g","y"],"trial_duration":2000,"stimulus_duration":1500,"block_num":1,"trial_type":"html-keyboard-response","trial_index":23,"time_elapsed":3169567,"internal_node_id":"0.0-2.1-8.1","target_present":1,"num_stimuli":24,"condition":"conjunction","exp_stage":"practice","correct_response":"g","correct_trial":0,"order_and_color_of_rectangles":["white horizontal","white horizontal","black vertical","black vertical","white horizontal","black vertical","black vertical","black vertical","black vertical","black vertical","black vertical","white horizontal","white horizontal","black vertical","white horizontal","white horizontal","white horizontal","black vertical","white horizontal","black vertical","white horizontal","black vertical","white vertical","black vertical"],"target_rectangle_location":22},{"rt":null,"stimulus":"<div class=center-box><p class=center-text>Incorrect!</div></div>","response":null,"exp_stage":"practice","trial_id":"practice_feedback","trial_duration":500,"stimulus_duration":500,"block_num":1,"trial_type":"html-keyboard-response","trial_index":24,"time_elapsed":3170073,"internal_node_id":"0.0-2.1-9.1"},{"rt":null,"stimulus":"<div class = centerbox><div class = fixation>+</div></div>","response":null,"trial_id":"practice_ITI","ITIParams":{"min":0,"max":5,"mean":0.5},"block_num":1,"exp_stage":"practice","trial_type":"html-keyboard-response","trial_index":25,"time_elapsed":3172656,"internal_node_id":"0.0-2.1-10.1","trial_duration":2577.1797856942308,"stimulus_duration":2577.1797856942308},{"rt":727,"stimulus":"<div class=\"container\" style=\"position: absolute; left: 50%; top: 50%; transform: translate(-50%, -50%); width: 1058.3999999999999px; height: 661.5px;\"><div id=\"target\" class=\"box\" style=\"position: absolute; left: 326.13333333333327px; top: 68.3px; width: 40px; height: 80px; background-color: white;\"></div><div id=\"black-distractor-element\" class=\"box\" style=\"position: absolute; left: 692.2666666666665px; top: 68.3px; width: 40px; height: 80px; background-color: black;\"></div><div id=\"black-distractor-element\" class=\"box\" style=\"position: absolute; left: 326.13333333333327px; top: 216.6px; width: 40px; height: 80px; background-color: black;\"></div><div id=\"black-distractor-element\" class=\"box\" style=\"position: absolute; left: 692.2666666666665px; top: 216.6px; width: 40px; height: 80px; background-color: black;\"></div><div id=\"black-distractor-element\" class=\"box\" style=\"position: absolute; left: 326.13333333333327px; top: 364.9px; width: 40px; height: 80px; background-color: black;\"></div><div id=\"black-distractor-element\" class=\"box\" style=\"position: absolute; left: 692.2666666666665px; top: 364.9px; width: 40px; height: 80px; background-color: black;\"></div><div id=\"black-distractor-element\" class=\"box\" style=\"position: absolute; left: 326.13333333333327px; top: 513.2px; width: 40px; height: 80px; background-color: black;\"></div><div id=\"black-distractor-element\" class=\"box\" style=\"position: absolute; left: 692.2666666666665px; top: 513.2px; width: 40px; height: 80px; background-color: black;\"></div></div>","response":"g","trial_id":"practice_trial","choices":["g","y"],"trial_duration":2000,"stimulus_duration":1500,"block_num":1,"trial_type":"html-keyboard-response","trial_index":26,"time_elapsed":3174658,"internal_node_id":"0.0-2.1-11.1","target_present":1,"num_stimuli":8,"condition":"feature","exp_stage":"practice","correct_response":"g","correct_trial":1,"order_and_color_of_rectangles":["white vertical","black vertical","black vertical","black vertical","black vertical","black vertical","black vertical","black vertical"],"target_rectangle_location":0},{"rt":null,"stimulus":"<div class=center-box><p class=center-text>Correct!</div></div>","response":null,"exp_stage":"practice","trial_id":"practice_feedback","trial_duration":500,"stimulus_duration":500,"block_num":1,"trial_type":"html-keyboard-response","trial_index":27,"time_elapsed":3175164,"internal_node_id":"0.0-2.1-12.1"},{"rt":1341,"stimulus":"<div class=\"bigbox\"><div class=\"picture_box\"><p class=\"block-text\"><div class = centerbox><p class = block-text>Please take a short break.</p></div></p></div></div>","response":" ","trial_id":"practice_feedback","exp_stage":"practice","trial_duration":4000,"block_num":0,"trial_type":"html-keyboard-response","trial_index":28,"time_elapsed":3176506,"internal_node_id":"0.0-3.0","block_level_feedback":{}},{"rt":7174,"stimulus":"\n  <div class=\"centerbox\" style=\"height: 50vh;\">\n    <p class=\"center-block-text\">Thanks for completing this task!</p>\n  </div>","response":"enter","trial_id":"end","exp_id":"visual_search_rdoc_practice__fmri","trial_duration":10000,"trial_type":"html-keyboard-response","trial_index":29,"time_elapsed":3186511,"internal_node_id":"0.0-4.0"},{"success":true,"trial_type":"fullscreen","trial_index":30,"time_elapsed":3187517,"internal_node_id":"0.0-5.0"}]