[{"rt":4284,"response":{"P0_Q0":null,"motor_perm":1,"design_perm":1},"accuracy":[],"trial_type":"survey","trial_index":0,"time_elapsed":4298,"internal_node_id":"0.0-0.0","motor_perm":1,"design_perm":1},{"success":true,"trial_type":"fullscreen","trial_index":1,"time_elapsed":3084439,"internal_node_id":"0.0-1.0"},{"rt":60166,"stimulus":"<div class=\"bigbox\"><div class=\"picture_box\"><p class=\"block-text\">\n  <div class = centerbox>\n    <p class = block-text>During this task, on each trial you will see a single shape in one of the four quadrants of the screen.\n    Based upon which quadrant the shape is presented, you will complete a different task for that shape.\n    </p>\n    <p class = block-text>In the top two quadrants, please judge the shape based on its <b>form</b>. Press your <b>index finger</b> if it's a\n    <b>square</b> and your <b>middle finger</b> if it's a\n    <b>circle</b>. \n    </p>\n     <p class = block-text>In the bottom two quadrants, please judge the shape based on its <b>color</b>. Press your <b>index finger</b> if it's\n    <b><span style='color:#87CEEB'>blue</span></b> and your <b>middle finger</b> if it's\n    <b><span style='color:#FFD700'>orange</span></b>. \n    </p>\n    <p class = block-text>We'll start with a practice round. During practice, you will receive feedback and a reminder of the rules. These will be taken out for the test, so make sure you understand the instructions before moving on.</p>\n    <p class = block-text>Try to respond as quickly and accurately as possible.</p>\n  </div></p></div></div>","response":" ","trial_id":"practice_feedback","exp_stage":"practice","trial_duration":4000,"block_num":0,"trial_type":"html-keyboard-response","trial_index":2,"time_elapsed":3144612,"internal_node_id":"0.0-2.0-0.0","block_level_feedback":{}},{"rt":null,"stimulus":"<div class = centerbox><div class = fixation>+</div></div>","response":null,"trial_id":"practice_ITI","ITIParams":{"min":0,"max":5,"mean":0.5},"block_num":0,"exp_stage":"practice","trial_type":"html-keyboard-response","trial_index":3,"time_elapsed":3147301,"internal_node_id":"0.0-2.0-1.0","trial_duration":2681.4416916702808,"stimulus_duration":2681.4416916702808},{"rt":null,"stimulus":"<div class = bigbox><div class = quad_box><div class = decision-top-right></div></div></div>","response":null,"exp_stage":"practice","trial_id":"practice_cue","trial_duration":150,"stimulus_duration":150,"trial_type":"html-keyboard-response","trial_index":4,"time_elapsed":3147454,"internal_node_id":"0.0-2.0-2.0","block_num":0},{"rt":null,"stimulus":"<div class = bigbox><div class = quad_box><div class = decision-top-right><div class = gng_number><div class = cue-text><img class = center src='/static/experiments/spatial_task_switching_rdoc_practice__fmri/images/blue_square.png'></img></div></div></div></div></div>","response":null,"exp_stage":"practice","trial_id":"practice_trial","choices":["y","g"],"trial_duration":1500,"stimulus_duration":1000,"trial_type":"html-keyboard-response","trial_index":5,"time_elapsed":3148961,"internal_node_id":"0.0-2.0-3.0","spatial_cue":"form","condition":"na","correct_response":"y","whichQuadrant":2,"shape":"blue_square","form":"square","color":"blue","current_trial":1,"current_block":0,"block_num":0,"correct_trial":0},{"rt":312,"stimulus":"<div class = fb_box><div class = center-text><font size =20>Respond Faster!</font></div></div>","response":"y","exp_stage":"practice","trial_id":"practice_feedback","trial_duration":500,"stimulus_duration":500,"block_num":0,"trial_type":"html-keyboard-response","trial_index":6,"time_elapsed":3149468,"internal_node_id":"0.0-2.0-4.0"},{"rt":null,"stimulus":"<div class = centerbox><div class = fixation>+</div></div>","response":null,"trial_id":"practice_ITI","ITIParams":{"min":0,"max":5,"mean":0.5},"block_num":0,"exp_stage":"practice","trial_type":"html-keyboard-response","trial_index":7,"time_elapsed":3150952,"internal_node_id":"0.0-2.0-5.0","trial_duration":1478.1303646502008,"stimulus_duration":1478.1303646502008},{"rt":null,"stimulus":"<div class = bigbox><div class = quad_box><div class = decision-top-right></div></div></div>","response":null,"exp_stage":"practice","trial_id":"practice_cue","trial_duration":150,"stimulus_duration":150,"trial_type":"html-keyboard-response","trial_index":8,"time_elapsed":3151104,"internal_node_id":"0.0-2.0-6.0","block_num":0},{"rt":995,"stimulus":"<div class = bigbox><div class = quad_box><div class = decision-top-right><div class = gng_number><div class = cue-text><img class = center src='/static/experiments/spatial_task_switching_rdoc_practice__fmri/images/blue_circle.png'></img></div></div></div></div></div>","response":"g","exp_stage":"practice","trial_id":"practice_trial","choices":["y","g"],"trial_duration":1500,"stimulus_duration":1000,"trial_type":"html-keyboard-response","trial_index":9,"time_elapsed":3152610,"internal_node_id":"0.0-2.0-7.0","spatial_cue":"form","condition":"task_stay_cue_stay","correct_response":"g","whichQuadrant":2,"shape":"blue_circle","form":"circle","color":"blue","current_trial":2,"current_block":0,"block_num":0,"correct_trial":1},{"rt":null,"stimulus":"<div class = fb_box><div class = center-text><font size =20>Correct!</font></div></div>","response":null,"exp_stage":"practice","trial_id":"practice_feedback","trial_duration":500,"stimulus_duration":500,"block_num":0,"trial_type":"html-keyboard-response","trial_index":10,"time_elapsed":3153117,"internal_node_id":"0.0-2.0-8.0"},{"rt":null,"stimulus":"<div class = centerbox><div class = fixation>+</div></div>","response":null,"trial_id":"practice_ITI","ITIParams":{"min":0,"max":5,"mean":0.5},"block_num":0,"exp_stage":"practice","trial_type":"html-keyboard-response","trial_index":11,"time_elapsed":3154238,"internal_node_id":"0.0-2.0-9.0","trial_duration":1115.7229697036382,"stimulus_duration":1115.7229697036382},{"rt":null,"stimulus":"<div class = bigbox><div class = quad_box><div class = decision-bottom-right></div></div></div>","response":null,"exp_stage":"practice","trial_id":"practice_cue","trial_duration":150,"stimulus_duration":150,"trial_type":"html-keyboard-response","trial_index":12,"time_elapsed":3154393,"internal_node_id":"0.0-2.0-10.0","block_num":0},{"rt":1079,"stimulus":"<div class = bigbox><div class = quad_box><div class = decision-bottom-right><div class = gng_number><div class = cue-text><img class = center src='/static/experiments/spatial_task_switching_rdoc_practice__fmri/images/blue_circle.png'></img></div></div></div></div></div>","response":"y","exp_stage":"practice","trial_id":"practice_trial","choices":["y","g"],"trial_duration":1500,"stimulus_duration":1000,"trial_type":"html-keyboard-response","trial_index":13,"time_elapsed":3155899,"internal_node_id":"0.0-2.0-11.0","spatial_cue":"color","condition":"task_switch_cue_switch","correct_response":"y","whichQuadrant":3,"shape":"blue_circle","form":"circle","color":"blue","current_trial":3,"current_block":0,"block_num":0,"correct_trial":1},{"rt":null,"stimulus":"<div class = fb_box><div class = center-text><font size =20>Correct!</font></div></div>","response":null,"exp_stage":"practice","trial_id":"practice_feedback","trial_duration":500,"stimulus_duration":500,"block_num":0,"trial_type":"html-keyboard-response","trial_index":14,"time_elapsed":3156407,"internal_node_id":"0.0-2.0-12.0"},{"rt":null,"stimulus":"<div class = centerbox><div class = fixation>+</div></div>","response":null,"trial_id":"practice_ITI","ITIParams":{"min":0,"max":5,"mean":0.5},"block_num":0,"exp_stage":"practice","trial_type":"html-keyboard-response","trial_index":15,"time_elapsed":3157582,"internal_node_id":"0.0-2.0-13.0","trial_duration":1169.5181434744484,"stimulus_duration":1169.5181434744484},{"rt":null,"stimulus":"<div class = bigbox><div class = quad_box><div class = decision-top-right></div></div></div>","response":null,"exp_stage":"practice","trial_id":"practice_cue","trial_duration":150,"stimulus_duration":150,"trial_type":"html-keyboard-response","trial_index":16,"time_elapsed":3157737,"internal_node_id":"0.0-2.0-14.0","block_num":0},{"rt":1209,"stimulus":"<div class = bigbox><div class = quad_box><div class = decision-top-right><div class = gng_number><div class = cue-text><img class = center src='/static/experiments/spatial_task_switching_rdoc_practice__fmri/images/blue_circle.png'></img></div></div></div></div></div>","response":"g","exp_stage":"practice","trial_id":"practice_trial","choices":["y","g"],"trial_duration":1500,"stimulus_duration":1000,"trial_type":"html-keyboard-response","trial_index":17,"time_elapsed":3159239,"internal_node_id":"0.0-2.0-15.0","spatial_cue":"form","condition":"task_switch_cue_switch","correct_response":"g","whichQuadrant":2,"shape":"blue_circle","form":"circle","color":"blue","current_trial":4,"current_block":0,"block_num":0,"correct_trial":1},{"rt":null,"stimulus":"<div class = fb_box><div class = center-text><font size =20>Correct!</font></div></div>","response":null,"exp_stage":"practice","trial_id":"practice_feedback","trial_duration":500,"stimulus_duration":500,"block_num":0,"trial_type":"html-keyboard-response","trial_index":18,"time_elapsed":3159745,"internal_node_id":"0.0-2.0-16.0"},{"rt":null,"stimulus":"<div class = centerbox><div class = fixation>+</div></div>","response":null,"trial_id":"practice_ITI","ITIParams":{"min":0,"max":5,"mean":0.5},"block_num":0,"exp_stage":"practice","trial_type":"html-keyboard-response","trial_index":19,"time_elapsed":3161420,"internal_node_id":"0.0-2.0-17.0","trial_duration":1669.9685090117562,"stimulus_duration":1669.9685090117562},{"rt":null,"stimulus":"<div class = bigbox><div class = quad_box><div class = decision-top-left></div></div></div>","response":null,"exp_stage":"practice","trial_id":"practice_cue","trial_duration":150,"stimulus_duration":150,"trial_type":"html-keyboard-response","trial_index":20,"time_elapsed":3161576,"internal_node_id":"0.0-2.0-18.0","block_num":0},{"rt":1062,"stimulus":"<div class = bigbox><div class = quad_box><div class = decision-top-left><div class = gng_number><div class = cue-text><img class = center src='/static/experiments/spatial_task_switching_rdoc_practice__fmri/images/orange_square.png'></img></div></div></div></div></div>","response":"g","exp_stage":"practice","trial_id":"practice_trial","choices":["y","g"],"trial_duration":1500,"stimulus_duration":1000,"trial_type":"html-keyboard-response","trial_index":21,"time_elapsed":3163081,"internal_node_id":"0.0-2.0-19.0","spatial_cue":"form","condition":"task_stay_cue_switch","correct_response":"y","whichQuadrant":1,"shape":"orange_square","form":"square","color":"orange","current_trial":5,"current_block":0,"block_num":0,"correct_trial":0},{"rt":null,"stimulus":"<div class = fb_box><div class = center-text><font size =20>Incorrect</font></div></div>","response":null,"exp_stage":"practice","trial_id":"practice_feedback","trial_duration":500,"stimulus_duration":500,"block_num":0,"trial_type":"html-keyboard-response","trial_index":22,"time_elapsed":3163585,"internal_node_id":"0.0-2.0-20.0"},{"rt":39460,"stimulus":"<div class=\"bigbox\"><div class=\"picture_box\"><p class=\"block-text\"><div class = centerbox><p class = block-text>Please take a short break.</p>\n          <p class=\"block-text\">Your accuracy was low.</p>\n          \n  <ul style=\"text-align:left;\">\n        <li><b>Top Square</b>: Index</li>\n        <li><b>Top Circle</b>: Middle</li>\n    <li><b>Bottom Blue</b>: Index</li>\n        <li><b>Bottom Orange</b>: Middle</li>\n  </ul>\n        \n        <p class=\"block-text\">Please respond more quickly without sacrificing accuracy.</p>\n      \n          <p class=\"block-text\">Respond on every trial.</p>\n        </div></p></div></div>","response":" ","trial_id":"practice_feedback","exp_stage":"practice","trial_duration":4000,"block_num":0,"trial_type":"html-keyboard-response","trial_index":23,"time_elapsed":3203049,"internal_node_id":"0.0-2.1-0.1","block_level_feedback":{}},{"rt":null,"stimulus":"<div class = centerbox><div class = fixation>+</div></div>","response":null,"trial_id":"practice_ITI","ITIParams":{"min":0,"max":5,"mean":0.5},"block_num":1,"exp_stage":"practice","trial_type":"html-keyboard-response","trial_index":24,"time_elapsed":3205373,"internal_node_id":"0.0-2.1-1.1","trial_duration":2319.683316650847,"stimulus_duration":2319.683316650847},{"rt":null,"stimulus":"<div class = bigbox><div class = quad_box><div class = decision-bottom-right></div></div></div>","response":null,"exp_stage":"practice","trial_id":"practice_cue","trial_duration":150,"stimulus_duration":150,"trial_type":"html-keyboard-response","trial_index":25,"time_elapsed":3205525,"internal_node_id":"0.0-2.1-2.1","block_num":1},{"rt":945,"stimulus":"<div class = bigbox><div class = quad_box><div class = decision-bottom-right><div class = gng_number><div class = cue-text><img class = center src='/static/experiments/spatial_task_switching_rdoc_practice__fmri/images/blue_circle.png'></img></div></div></div></div></div>","response":"g","exp_stage":"practice","trial_id":"practice_trial","choices":["y","g"],"trial_duration":1500,"stimulus_duration":1000,"trial_type":"html-keyboard-response","trial_index":26,"time_elapsed":3207031,"internal_node_id":"0.0-2.1-3.1","spatial_cue":"color","condition":"na","correct_response":"y","whichQuadrant":3,"shape":"blue_circle","form":"circle","color":"blue","current_trial":1,"current_block":1,"block_num":1,"correct_trial":0},{"rt":null,"stimulus":"<div class = fb_box><div class = center-text><font size =20>Incorrect</font></div></div>","response":null,"exp_stage":"practice","trial_id":"practice_feedback","trial_duration":500,"stimulus_duration":500,"block_num":1,"trial_type":"html-keyboard-response","trial_index":27,"time_elapsed":3207537,"internal_node_id":"0.0-2.1-4.1"},{"rt":null,"stimulus":"<div class = centerbox><div class = fixation>+</div></div>","response":null,"trial_id":"practice_ITI","ITIParams":{"min":0,"max":5,"mean":0.5},"block_num":1,"exp_stage":"practice","trial_type":"html-keyboard-response","trial_index":28,"time_elapsed":3210461,"internal_node_id":"0.0-2.1-5.1","trial_duration":2921.898474687633,"stimulus_duration":2921.898474687633},{"rt":null,"stimulus":"<div class = bigbox><div class = quad_box><div class = decision-bottom-right></div></div></div>","response":null,"exp_stage":"practice","trial_id":"practice_cue","trial_duration":150,"stimulus_duration":150,"trial_type":"html-keyboard-response","trial_index":29,"time_elapsed":3210618,"internal_node_id":"0.0-2.1-6.1","block_num":1},{"rt":995,"stimulus":"<div class = bigbox><div class = quad_box><div class = decision-bottom-right><div class = gng_number><div class = cue-text><img class = center src='/static/experiments/spatial_task_switching_rdoc_practice__fmri/images/blue_square.png'></img></div></div></div></div></div>","response":"y","exp_stage":"practice","trial_id":"practice_trial","choices":["y","g"],"trial_duration":1500,"stimulus_duration":1000,"trial_type":"html-keyboard-response","trial_index":30,"time_elapsed":3212119,"internal_node_id":"0.0-2.1-7.1","spatial_cue":"color","condition":"task_stay_cue_stay","correct_response":"y","whichQuadrant":3,"shape":"blue_square","form":"square","color":"blue","current_trial":2,"current_block":1,"block_num":1,"correct_trial":1},{"rt":null,"stimulus":"<div class = fb_box><div class = center-text><font size =20>Correct!</font></div></div>","response":null,"exp_stage":"practice","trial_id":"practice_feedback","trial_duration":500,"stimulus_duration":500,"block_num":1,"trial_type":"html-keyboard-response","trial_index":31,"time_elapsed":3212625,"internal_node_id":"0.0-2.1-8.1"},{"rt":null,"stimulus":"<div class = centerbox><div class = fixation>+</div></div>","response":null,"trial_id":"practice_ITI","ITIParams":{"min":0,"max":5,"mean":0.5},"block_num":1,"exp_stage":"practice","trial_type":"html-keyboard-response","trial_index":32,"time_elapsed":3215267,"internal_node_id":"0.0-2.1-9.1","trial_duration":2641.6469900285038,"stimulus_duration":2641.6469900285038},{"rt":null,"stimulus":"<div class = bigbox><div class = quad_box><div class = decision-top-left></div></div></div>","response":null,"exp_stage":"practice","trial_id":"practice_cue","trial_duration":150,"stimulus_duration":150,"trial_type":"html-keyboard-response","trial_index":33,"time_elapsed":3215423,"internal_node_id":"0.0-2.1-10.1","block_num":1},{"rt":1177,"stimulus":"<div class = bigbox><div class = quad_box><div class = decision-top-left><div class = gng_number><div class = cue-text><img class = center src='/static/experiments/spatial_task_switching_rdoc_practice__fmri/images/blue_square.png'></img></div></div></div></div></div>","response":"y","exp_stage":"practice","trial_id":"practice_trial","choices":["y","g"],"trial_duration":1500,"stimulus_duration":1000,"trial_type":"html-keyboard-response","trial_index":34,"time_elapsed":3216930,"internal_node_id":"0.0-2.1-11.1","spatial_cue":"form","condition":"task_switch_cue_switch","correct_response":"y","whichQuadrant":1,"shape":"blue_square","form":"square","color":"blue","current_trial":3,"current_block":1,"block_num":1,"correct_trial":1},{"rt":null,"stimulus":"<div class = fb_box><div class = center-text><font size =20>Correct!</font></div></div>","response":null,"exp_stage":"practice","trial_id":"practice_feedback","trial_duration":500,"stimulus_duration":500,"block_num":1,"trial_type":"html-keyboard-response","trial_index":35,"time_elapsed":3217435,"internal_node_id":"0.0-2.1-12.1"},{"rt":null,"stimulus":"<div class = centerbox><div class = fixation>+</div></div>","response":null,"trial_id":"practice_ITI","ITIParams":{"min":0,"max":5,"mean":0.5},"block_num":1,"exp_stage":"practice","trial_type":"html-keyboard-response","trial_index":36,"time_elapsed":3219443,"internal_node_id":"0.0-2.1-13.1","trial_duration":1922.7051091939331,"stimulus_duration":1922.7051091939331},{"rt":null,"stimulus":"<div class = bigbox><div class = quad_box><div class = decision-bottom-left></div></div></div>","response":null,"exp_stage":"practice","trial_id":"practice_cue","trial_duration":150,"stimulus_duration":150,"trial_type":"html-keyboard-response","trial_index":37,"time_elapsed":3219599,"internal_node_id":"0.0-2.1-14.1","block_num":1},{"rt":652,"stimulus":"<div class = bigbox><div class = quad_box><div class = decision-bottom-left><div class = gng_number><div class = cue-text><img class = center src='/static/experiments/spatial_task_switching_rdoc_practice__fmri/images/orange_square.png'></img></div></div></div></div></div>","response":"g","exp_stage":"practice","trial_id":"practice_trial","choices":["y","g"],"trial_duration":1500,"stimulus_duration":1000,"trial_type":"html-keyboard-response","trial_index":38,"time_elapsed":3221105,"internal_node_id":"0.0-2.1-15.1","spatial_cue":"color","condition":"task_switch_cue_switch","correct_response":"g","whichQuadrant":4,"shape":"orange_square","form":"square","color":"orange","current_trial":4,"current_block":1,"block_num":1,"correct_trial":1},{"rt":null,"stimulus":"<div class = fb_box><div class = center-text><font size =20>Correct!</font></div></div>","response":null,"exp_stage":"practice","trial_id":"practice_feedback","trial_duration":500,"stimulus_duration":500,"block_num":1,"trial_type":"html-keyboard-response","trial_index":39,"time_elapsed":3221610,"internal_node_id":"0.0-2.1-16.1"},{"rt":null,"stimulus":"<div class = centerbox><div class = fixation>+</div></div>","response":null,"trial_id":"practice_ITI","ITIParams":{"min":0,"max":5,"mean":0.5},"block_num":1,"exp_stage":"practice","trial_type":"html-keyboard-response","trial_index":40,"time_elapsed":3225564,"internal_node_id":"0.0-2.1-17.1","trial_duration":3948.8973572244886,"stimulus_duration":3948.8973572244886},{"rt":null,"stimulus":"<div class = bigbox><div class = quad_box><div class = decision-bottom-right></div></div></div>","response":null,"exp_stage":"practice","trial_id":"practice_cue","trial_duration":150,"stimulus_duration":150,"trial_type":"html-keyboard-response","trial_index":41,"time_elapsed":3225720,"internal_node_id":"0.0-2.1-18.1","block_num":1},{"rt":952,"stimulus":"<div class = bigbox><div class = quad_box><div class = decision-bottom-right><div class = gng_number><div class = cue-text><img class = center src='/static/experiments/spatial_task_switching_rdoc_practice__fmri/images/blue_circle.png'></img></div></div></div></div></div>","response":"y","exp_stage":"practice","trial_id":"practice_trial","choices":["y","g"],"trial_duration":1500,"stimulus_duration":1000,"trial_type":"html-keyboard-response","trial_index":42,"time_elapsed":3227266,"internal_node_id":"0.0-2.1-19.1","spatial_cue":"color","condition":"task_stay_cue_switch","correct_response":"y","whichQuadrant":3,"shape":"blue_circle","form":"circle","color":"blue","current_trial":5,"current_block":1,"block_num":1,"correct_trial":1},{"rt":null,"stimulus":"<div class = fb_box><div class = center-text><font size =20>Correct!</font></div></div>","response":null,"exp_stage":"practice","trial_id":"practice_feedback","trial_duration":500,"stimulus_duration":500,"block_num":1,"trial_type":"html-keyboard-response","trial_index":43,"time_elapsed":3227772,"internal_node_id":"0.0-2.1-20.1"},{"rt":10138,"stimulus":"<div class=\"bigbox\"><div class=\"picture_box\"><p class=\"block-text\"><div class = centerbox><p class = block-text>Please take a short break.</p>\n        <p class=\"block-text\">Please respond more quickly without sacrificing accuracy.</p>\n      </div></p></div></div>","response":" ","trial_id":"practice_feedback","exp_stage":"practice","trial_duration":4000,"block_num":0,"trial_type":"html-keyboard-response","trial_index":44,"time_elapsed":3237912,"internal_node_id":"0.0-2.2-0.2","block_level_feedback":{}},{"rt":null,"stimulus":"<div class = centerbox><div class = fixation>+</div></div>","response":null,"trial_id":"practice_ITI","ITIParams":{"min":0,"max":5,"mean":0.5},"block_num":2,"exp_stage":"practice","trial_type":"html-keyboard-response","trial_index":45,"time_elapsed":3238617,"internal_node_id":"0.0-2.2-1.2","trial_duration":698.340943308296,"stimulus_duration":698.340943308296},{"rt":null,"stimulus":"<div class = bigbox><div class = quad_box><div class = decision-bottom-left></div></div></div>","response":null,"exp_stage":"practice","trial_id":"practice_cue","trial_duration":150,"stimulus_duration":150,"trial_type":"html-keyboard-response","trial_index":46,"time_elapsed":3238772,"internal_node_id":"0.0-2.2-2.2","block_num":2},{"rt":768,"stimulus":"<div class = bigbox><div class = quad_box><div class = decision-bottom-left><div class = gng_number><div class = cue-text><img class = center src='/static/experiments/spatial_task_switching_rdoc_practice__fmri/images/blue_circle.png'></img></div></div></div></div></div>","response":"g","exp_stage":"practice","trial_id":"practice_trial","choices":["y","g"],"trial_duration":1500,"stimulus_duration":1000,"trial_type":"html-keyboard-response","trial_index":47,"time_elapsed":3240275,"internal_node_id":"0.0-2.2-3.2","spatial_cue":"color","condition":"na","correct_response":"y","whichQuadrant":4,"shape":"blue_circle","form":"circle","color":"blue","current_trial":1,"current_block":2,"block_num":2,"correct_trial":0},{"rt":null,"stimulus":"<div class = fb_box><div class = center-text><font size =20>Incorrect</font></div></div>","response":null,"exp_stage":"practice","trial_id":"practice_feedback","trial_duration":500,"stimulus_duration":500,"block_num":2,"trial_type":"html-keyboard-response","trial_index":48,"time_elapsed":3240782,"internal_node_id":"0.0-2.2-4.2"},{"rt":null,"stimulus":"<div class = centerbox><div class = fixation>+</div></div>","response":null,"trial_id":"practice_ITI","ITIParams":{"min":0,"max":5,"mean":0.5},"block_num":2,"exp_stage":"practice","trial_type":"html-keyboard-response","trial_index":49,"time_elapsed":3241416,"internal_node_id":"0.0-2.2-5.2","trial_duration":628.64242430141,"stimulus_duration":628.64242430141},{"rt":null,"stimulus":"<div class = bigbox><div class = quad_box><div class = decision-bottom-left></div></div></div>","response":null,"exp_stage":"practice","trial_id":"practice_cue","trial_duration":150,"stimulus_duration":150,"trial_type":"html-keyboard-response","trial_index":50,"time_elapsed":3241572,"internal_node_id":"0.0-2.2-6.2","block_num":2},{"rt":751,"stimulus":"<div class = bigbox><div class = quad_box><div class = decision-bottom-left><div class = gng_number><div class = cue-text><img class = center src='/static/experiments/spatial_task_switching_rdoc_practice__fmri/images/blue_square.png'></img></div></div></div></div></div>","response":"y","exp_stage":"practice","trial_id":"practice_trial","choices":["y","g"],"trial_duration":1500,"stimulus_duration":1000,"trial_type":"html-keyboard-response","trial_index":51,"time_elapsed":3243078,"internal_node_id":"0.0-2.2-7.2","spatial_cue":"color","condition":"task_stay_cue_stay","correct_response":"y","whichQuadrant":4,"shape":"blue_square","form":"square","color":"blue","current_trial":2,"current_block":2,"block_num":2,"correct_trial":1},{"rt":null,"stimulus":"<div class = fb_box><div class = center-text><font size =20>Correct!</font></div></div>","response":null,"exp_stage":"practice","trial_id":"practice_feedback","trial_duration":500,"stimulus_duration":500,"block_num":2,"trial_type":"html-keyboard-response","trial_index":52,"time_elapsed":3243584,"internal_node_id":"0.0-2.2-8.2"},{"rt":null,"stimulus":"<div class = centerbox><div class = fixation>+</div></div>","response":null,"trial_id":"practice_ITI","ITIParams":{"min":0,"max":5,"mean":0.5},"block_num":2,"exp_stage":"practice","trial_type":"html-keyboard-response","trial_index":53,"time_elapsed":3244501,"internal_node_id":"0.0-2.2-9.2","trial_duration":911.442904279787,"stimulus_duration":911.442904279787},{"rt":null,"stimulus":"<div class = bigbox><div class = quad_box><div class = decision-top-left></div></div></div>","response":null,"exp_stage":"practice","trial_id":"practice_cue","trial_duration":150,"stimulus_duration":150,"trial_type":"html-keyboard-response","trial_index":54,"time_elapsed":3244658,"internal_node_id":"0.0-2.2-10.2","block_num":2},{"rt":796,"stimulus":"<div class = bigbox><div class = quad_box><div class = decision-top-left><div class = gng_number><div class = cue-text><img class = center src='/static/experiments/spatial_task_switching_rdoc_practice__fmri/images/blue_square.png'></img></div></div></div></div></div>","response":"y","exp_stage":"practice","trial_id":"practice_trial","choices":["y","g"],"trial_duration":1500,"stimulus_duration":1000,"trial_type":"html-keyboard-response","trial_index":55,"time_elapsed":3246164,"internal_node_id":"0.0-2.2-11.2","spatial_cue":"form","condition":"task_switch_cue_switch","correct_response":"y","whichQuadrant":1,"shape":"blue_square","form":"square","color":"blue","current_trial":3,"current_block":2,"block_num":2,"correct_trial":1},{"rt":null,"stimulus":"<div class = fb_box><div class = center-text><font size =20>Correct!</font></div></div>","response":null,"exp_stage":"practice","trial_id":"practice_feedback","trial_duration":500,"stimulus_duration":500,"block_num":2,"trial_type":"html-keyboard-response","trial_index":56,"time_elapsed":3246670,"internal_node_id":"0.0-2.2-12.2"},{"rt":null,"stimulus":"<div class = centerbox><div class = fixation>+</div></div>","response":null,"trial_id":"practice_ITI","ITIParams":{"min":0,"max":5,"mean":0.5},"block_num":2,"exp_stage":"practice","trial_type":"html-keyboard-response","trial_index":57,"time_elapsed":3248873,"internal_node_id":"0.0-2.2-13.2","trial_duration":2197.1688828477554,"stimulus_duration":2197.1688828477554},{"rt":null,"stimulus":"<div class = bigbox><div class = quad_box><div class = decision-bottom-left></div></div></div>","response":null,"exp_stage":"practice","trial_id":"practice_cue","trial_duration":150,"stimulus_duration":150,"trial_type":"html-keyboard-response","trial_index":58,"time_elapsed":3249026,"internal_node_id":"0.0-2.2-14.2","block_num":2},{"rt":629,"stimulus":"<div class = bigbox><div class = quad_box><div class = decision-bottom-left><div class = gng_number><div class = cue-text><img class = center src='/static/experiments/spatial_task_switching_rdoc_practice__fmri/images/blue_square.png'></img></div></div></div></div></div>","response":"g","exp_stage":"practice","trial_id":"practice_trial","choices":["y","g"],"trial_duration":1500,"stimulus_duration":1000,"trial_type":"html-keyboard-response","trial_index":59,"time_elapsed":3250529,"internal_node_id":"0.0-2.2-15.2","spatial_cue":"color","condition":"task_switch_cue_switch","correct_response":"y","whichQuadrant":4,"shape":"blue_square","form":"square","color":"blue","current_trial":4,"current_block":2,"block_num":2,"correct_trial":0},{"rt":null,"stimulus":"<div class = fb_box><div class = center-text><font size =20>Incorrect</font></div></div>","response":null,"exp_stage":"practice","trial_id":"practice_feedback","trial_duration":500,"stimulus_duration":500,"block_num":2,"trial_type":"html-keyboard-response","trial_index":60,"time_elapsed":3251030,"internal_node_id":"0.0-2.2-16.2"},{"rt":null,"stimulus":"<div class = centerbox><div class = fixation>+</div></div>","response":null,"trial_id":"practice_ITI","ITIParams":{"min":0,"max":5,"mean":0.5},"block_num":2,"exp_stage":"practice","trial_type":"html-keyboard-response","trial_index":61,"time_elapsed":3254230,"internal_node_id":"0.0-2.2-17.2","trial_duration":3193.3095345018164,"stimulus_duration":3193.3095345018164},{"rt":null,"stimulus":"<div class = bigbox><div class = quad_box><div class = decision-bottom-right></div></div></div>","response":null,"exp_stage":"practice","trial_id":"practice_cue","trial_duration":150,"stimulus_duration":150,"trial_type":"html-keyboard-response","trial_index":62,"time_elapsed":3254386,"internal_node_id":"0.0-2.2-18.2","block_num":2},{"rt":740,"stimulus":"<div class = bigbox><div class = quad_box><div class = decision-bottom-right><div class = gng_number><div class = cue-text><img class = center src='/static/experiments/spatial_task_switching_rdoc_practice__fmri/images/orange_square.png'></img></div></div></div></div></div>","response":"g","exp_stage":"practice","trial_id":"practice_trial","choices":["y","g"],"trial_duration":1500,"stimulus_duration":1000,"trial_type":"html-keyboard-response","trial_index":63,"time_elapsed":3255892,"internal_node_id":"0.0-2.2-19.2","spatial_cue":"color","condition":"task_stay_cue_switch","correct_response":"g","whichQuadrant":3,"shape":"orange_square","form":"square","color":"orange","current_trial":5,"current_block":2,"block_num":2,"correct_trial":1},{"rt":null,"stimulus":"<div class = fb_box><div class = center-text><font size =20>Correct!</font></div></div>","response":null,"exp_stage":"practice","trial_id":"practice_feedback","trial_duration":500,"stimulus_duration":500,"block_num":2,"trial_type":"html-keyboard-response","trial_index":64,"time_elapsed":3256398,"internal_node_id":"0.0-2.2-20.2"},{"rt":13631,"stimulus":"<div class=\"bigbox\"><div class=\"picture_box\"><p class=\"block-text\"><div class = centerbox><p class = block-text>Please take a short break.</p>\n          <p class=\"block-text\">Your accuracy was low.</p>\n          \n  <ul style=\"text-align:left;\">\n        <li><b>Top Square</b>: Index</li>\n        <li><b>Top Circle</b>: Middle</li>\n    <li><b>Bottom Blue</b>: Index</li>\n        <li><b>Bottom Orange</b>: Middle</li>\n  </ul>\n        </div></p></div></div>","response":" ","trial_id":"practice_feedback","exp_stage":"practice","trial_duration":4000,"block_num":0,"trial_type":"html-keyboard-response","trial_index":65,"time_elapsed":3270031,"internal_node_id":"0.0-3.0","block_level_feedback":{}},{"rt":1526,"stimulus":"\n  <div class=\"centerbox\" style=\"height: 50vh;\">\n    <p class=\"center-block-text\">Thanks for completing this task!</p>\n  </div>","response":"enter","trial_id":"end","exp_id":"spatial_task_switching_rdoc_practice__fmri","trial_duration":10000,"trial_type":"html-keyboard-response","trial_index":66,"time_elapsed":3280243,"internal_node_id":"0.0-4.0"},{"success":true,"trial_type":"fullscreen","trial_index":67,"time_elapsed":3281246,"internal_node_id":"0.0-5.0"}]