[{"rt":3959,"response":{"P0_Q0":null,"design_perm":1},"accuracy":[],"trial_type":"survey","trial_index":0,"time_elapsed":3973,"internal_node_id":"0.0-0.0","design_perm":1},{"success":true,"trial_type":"fullscreen","trial_index":1,"time_elapsed":3256364,"internal_node_id":"0.0-1.0"},{"rt":27293,"stimulus":"<div class=\"bigbox\"><div class=\"picture_box\"><p class=\"block-text\">\n  <div class=\"centerbox\">\n    <p class=\"block-text\">In this experiment, on each trial a solid white or outlined white square will appear on the screen.</p>\n    <p class=\"block-text\">If you see the <b>solid white square</b>, you should respond by pressing your <b>index finger</b> as quickly as possible.</p>\n    <p class=\"block-text\">If you see the <b>outlined white square</b>, you should <b>not respond</b>.</p>\n    <p class=\"block-text\">We'll start with a practice round. During practice, you will receive feedback and a reminder of the rules. These will be taken out for the test, so make sure you understand the instructions before moving on.</p>\n    \n  <p class=\"block-text\">\n    Try to respond as quickly and accurately as possible.\n  </p>\n\n  </div>\n</p></div></div>","response":" ","trial_id":"practice_feedback","exp_stage":"practice","trial_duration":4000,"block_num":0,"trial_type":"html-keyboard-response","trial_index":2,"time_elapsed":3283663,"internal_node_id":"0.0-2.0-0.0","block_level_feedback":{}},{"rt":null,"stimulus":"<div class = centerbox><div class = fixation>+</div></div>","response":null,"trial_id":"practice_ITI","ITIParams":{"min":0.5,"max":5.5,"mean":1},"block_num":0,"exp_stage":"practice","trial_type":"html-keyboard-response","trial_index":3,"time_elapsed":3284176,"internal_node_id":"0.0-2.0-1.0","trial_duration":505.9395215984639,"stimulus_duration":505.9395215984639},{"rt":760,"stimulus":"<div class = bigbox><div class = centerbox><div class = gng_number><div class = cue-text><div  id = stim1></div></div></div></div></div>","response":"y","correct_response":"y","condition":"go","trial_id":"practice_trial","trial_duration":1500,"stimulus_duration":1000,"exp_stage":"practice","block_num":0,"trial_type":"html-keyboard-response","trial_index":4,"time_elapsed":3285682,"internal_node_id":"0.0-2.0-2.0","correct_trial":1,"shape":"filled square"},{"rt":null,"stimulus":"<div class = center-box><divp class = center-text>Correct!</div></div>","response":null,"exp_stage":"practice","trial_id":"practice_feedback","trial_duration":500,"stimulus_duration":500,"block_num":0,"trial_type":"html-keyboard-response","trial_index":5,"time_elapsed":3286187,"internal_node_id":"0.0-2.0-3.0"},{"rt":null,"stimulus":"<div class = centerbox><div class = fixation>+</div></div>","response":null,"trial_id":"practice_ITI","ITIParams":{"min":0.5,"max":5.5,"mean":1},"block_num":0,"exp_stage":"practice","trial_type":"html-keyboard-response","trial_index":6,"time_elapsed":3287458,"internal_node_id":"0.0-2.0-4.0","trial_duration":1268.6694156757267,"stimulus_duration":1268.6694156757267},{"rt":385,"stimulus":"<div class = bigbox><div class = centerbox><div class = gng_number><div class = cue-text><div  id = stim1></div></div></div></div></div>","response":"y","correct_response":"y","condition":"go","trial_id":"practice_trial","trial_duration":1500,"stimulus_duration":1000,"exp_stage":"practice","block_num":0,"trial_type":"html-keyboard-response","trial_index":7,"time_elapsed":3288962,"internal_node_id":"0.0-2.0-5.0","correct_trial":1,"shape":"filled square"},{"rt":null,"stimulus":"<div class = center-box><divp class = center-text>Correct!</div></div>","response":null,"exp_stage":"practice","trial_id":"practice_feedback","trial_duration":500,"stimulus_duration":500,"block_num":0,"trial_type":"html-keyboard-response","trial_index":8,"time_elapsed":3289466,"internal_node_id":"0.0-2.0-6.0"},{"rt":null,"stimulus":"<div class = centerbox><div class = fixation>+</div></div>","response":null,"trial_id":"practice_ITI","ITIParams":{"min":0.5,"max":5.5,"mean":1},"block_num":0,"exp_stage":"practice","trial_type":"html-keyboard-response","trial_index":9,"time_elapsed":3291580,"internal_node_id":"0.0-2.0-7.0","trial_duration":2108.448021537395,"stimulus_duration":2108.448021537395},{"rt":406,"stimulus":"<div class = bigbox><div class = centerbox><div class = gng_number><div class = cue-text><div  id = stim1></div></div></div></div></div>","response":"y","correct_response":"y","condition":"go","trial_id":"practice_trial","trial_duration":1500,"stimulus_duration":1000,"exp_stage":"practice","block_num":0,"trial_type":"html-keyboard-response","trial_index":10,"time_elapsed":3293083,"internal_node_id":"0.0-2.0-8.0","correct_trial":1,"shape":"filled square"},{"rt":null,"stimulus":"<div class = center-box><divp class = center-text>Correct!</div></div>","response":null,"exp_stage":"practice","trial_id":"practice_feedback","trial_duration":500,"stimulus_duration":500,"block_num":0,"trial_type":"html-keyboard-response","trial_index":11,"time_elapsed":3293589,"internal_node_id":"0.0-2.0-9.0"},{"rt":null,"stimulus":"<div class = centerbox><div class = fixation>+</div></div>","response":null,"trial_id":"practice_ITI","ITIParams":{"min":0.5,"max":5.5,"mean":1},"block_num":0,"exp_stage":"practice","trial_type":"html-keyboard-response","trial_index":12,"time_elapsed":3296511,"internal_node_id":"0.0-2.0-10.0","trial_duration":2915.3057620601776,"stimulus_duration":2915.3057620601776},{"rt":385,"stimulus":"<div class = bigbox><div class = centerbox><div class = gng_number><div class = cue-text><div  id = stim1></div></div></div></div></div>","response":"y","correct_response":"y","condition":"go","trial_id":"practice_trial","trial_duration":1500,"stimulus_duration":1000,"exp_stage":"practice","block_num":0,"trial_type":"html-keyboard-response","trial_index":13,"time_elapsed":3298017,"internal_node_id":"0.0-2.0-11.0","correct_trial":1,"shape":"filled square"},{"rt":null,"stimulus":"<div class = center-box><divp class = center-text>Correct!</div></div>","response":null,"exp_stage":"practice","trial_id":"practice_feedback","trial_duration":500,"stimulus_duration":500,"block_num":0,"trial_type":"html-keyboard-response","trial_index":14,"time_elapsed":3298519,"internal_node_id":"0.0-2.0-12.0"},{"rt":null,"stimulus":"<div class = centerbox><div class = fixation>+</div></div>","response":null,"trial_id":"practice_ITI","ITIParams":{"min":0.5,"max":5.5,"mean":1},"block_num":0,"exp_stage":"practice","trial_type":"html-keyboard-response","trial_index":15,"time_elapsed":3299026,"internal_node_id":"0.0-2.0-13.0","trial_duration":504.5265147179183,"stimulus_duration":504.5265147179183},{"rt":466,"stimulus":"<div class = bigbox><div class = centerbox><div class = gng_number><div class = cue-text><div  id = stim1></div></div></div></div></div>","response":"y","correct_response":"y","condition":"go","trial_id":"practice_trial","trial_duration":1500,"stimulus_duration":1000,"exp_stage":"practice","block_num":0,"trial_type":"html-keyboard-response","trial_index":16,"time_elapsed":3300532,"internal_node_id":"0.0-2.0-14.0","correct_trial":1,"shape":"filled square"},{"rt":null,"stimulus":"<div class = center-box><divp class = center-text>Correct!</div></div>","response":null,"exp_stage":"practice","trial_id":"practice_feedback","trial_duration":500,"stimulus_duration":500,"block_num":0,"trial_type":"html-keyboard-response","trial_index":17,"time_elapsed":3301038,"internal_node_id":"0.0-2.0-15.0"},{"rt":null,"stimulus":"<div class = centerbox><div class = fixation>+</div></div>","response":null,"trial_id":"practice_ITI","ITIParams":{"min":0.5,"max":5.5,"mean":1},"block_num":0,"exp_stage":"practice","trial_type":"html-keyboard-response","trial_index":18,"time_elapsed":3302717,"internal_node_id":"0.0-2.0-16.0","trial_duration":1674.0458178047923,"stimulus_duration":1674.0458178047923},{"rt":416,"stimulus":"<div class = bigbox><div class = centerbox><div class = gng_number><div class = cue-text><div id = stim2></div></div></div></div></div>","response":"y","correct_response":null,"condition":"nogo","trial_id":"practice_trial","trial_duration":1500,"stimulus_duration":1000,"exp_stage":"practice","block_num":0,"trial_type":"html-keyboard-response","trial_index":19,"time_elapsed":3304220,"internal_node_id":"0.0-2.0-17.0","correct_trial":0,"shape":"outlined square"},{"rt":null,"stimulus":"<div class = center-box><div class = center-text>The shape was outlined</div></div>","response":null,"exp_stage":"practice","trial_id":"practice_feedback","trial_duration":500,"stimulus_duration":500,"block_num":0,"trial_type":"html-keyboard-response","trial_index":20,"time_elapsed":3304723,"internal_node_id":"0.0-2.0-18.0"},{"rt":null,"stimulus":"<div class = centerbox><div class = fixation>+</div></div>","response":null,"trial_id":"practice_ITI","ITIParams":{"min":0.5,"max":5.5,"mean":1},"block_num":0,"exp_stage":"practice","trial_type":"html-keyboard-response","trial_index":21,"time_elapsed":3305250,"internal_node_id":"0.0-2.0-19.0","trial_duration":521.7473264476349,"stimulus_duration":521.7473264476349},{"rt":477,"stimulus":"<div class = bigbox><div class = centerbox><div class = gng_number><div class = cue-text><div  id = stim1></div></div></div></div></div>","response":"y","correct_response":"y","condition":"go","trial_id":"practice_trial","trial_duration":1500,"stimulus_duration":1000,"exp_stage":"practice","block_num":0,"trial_type":"html-keyboard-response","trial_index":22,"time_elapsed":3306756,"internal_node_id":"0.0-2.0-20.0","correct_trial":1,"shape":"filled square"},{"rt":null,"stimulus":"<div class = center-box><divp class = center-text>Correct!</div></div>","response":null,"exp_stage":"practice","trial_id":"practice_feedback","trial_duration":500,"stimulus_duration":500,"block_num":0,"trial_type":"html-keyboard-response","trial_index":23,"time_elapsed":3307262,"internal_node_id":"0.0-2.0-21.0"},{"rt":1834,"stimulus":"<div class=\"bigbox\"><div class=\"picture_box\"><p class=\"block-text\"><div class = centerbox><p class = block-text>Please take a short break.</p></div></p></div></div>","response":" ","trial_id":"practice_feedback","exp_stage":"practice","trial_duration":4000,"block_num":0,"trial_type":"html-keyboard-response","trial_index":24,"time_elapsed":3309098,"internal_node_id":"0.0-3.0","block_level_feedback":{}},{"rt":4965,"stimulus":"\n  <div class=\"centerbox\" style=\"height: 50vh;\">\n    <p class=\"center-block-text\">Thanks for completing this task!</p>\n  </div>","response":"enter","trial_id":"end","exp_id":"go_nogo_rdoc_practice__fmri","trial_duration":10000,"trial_type":"html-keyboard-response","trial_index":25,"time_elapsed":3319104,"internal_node_id":"0.0-4.0"},{"success":true,"trial_type":"fullscreen","trial_index":26,"time_elapsed":3320109,"internal_node_id":"0.0-5.0"}]