[{"rt":3232490,"response":{"P0_Q0":null,"motor_perm":0,"design_perm":3},"accuracy":[],"trial_type":"survey","trial_index":0,"time_elapsed":3325573,"internal_node_id":"0.0-0.0","motor_perm":0,"design_perm":3},{"success":true,"trial_type":"fullscreen","trial_index":1,"time_elapsed":3327656,"internal_node_id":"0.0-1.0"},{"rt":31807,"stimulus":"<div class=\"bigbox\"><div class=\"picture_box\"><p class=\"block-text\">\n  <div class=\"centerbox\">\n    <p class=\"block-text\">During this task, on each trial you will see a string of F's and H's. For instance, you might see 'FFFFF' or 'HHFHH'.</p>\n    <p class=\"block-text\">Your task is to respond by pressing the key corresponding to the <b>middle</b> letter.</p>\n    <p class=\"block-text\">If the middle letter is an <b>H</b>, press your <b>index finger</b>.</p>\n    <p class=\"block-text\">If the middle letter is an <b>F</b>, press your <b>middle finger</b>.</p>\n    <p class=\"block-text\">So, if you see <b>'FFHFF'</b>, you would press your <b>index finger</b>.</p>\n    <p class=\"block-text\">We'll start with a practice round. During practice, you will receive feedback and a reminder of the rules. These will be taken out for the test, so make sure you understand the instructions before moving on.</p>\n    \n  <p class=\"block-text\">\n    Try to respond as quickly and accurately as possible.\n  </p>\n\n  </div>\n</p></div></div>","response":" ","trial_id":"practice_feedback","exp_stage":"practice","trial_duration":4000,"block_num":0,"trial_type":"html-keyboard-response","trial_index":2,"time_elapsed":3359465,"internal_node_id":"0.0-2.0-0.0","block_level_feedback":{}},{"rt":null,"stimulus":"<div class = centerbox><div class = fixation>+</div></div>","response":null,"trial_id":"practice_ITI","ITIParams":{"min":0.5,"max":5.5,"mean":1},"block_num":0,"exp_stage":"practice","trial_type":"html-keyboard-response","trial_index":3,"time_elapsed":3363182,"internal_node_id":"0.0-2.0-1.0","trial_duration":3711.7453132510723,"stimulus_duration":3711.7453132510723},{"rt":540,"stimulus":"<div class=\"centerbox-flex\"><div class=\"stimuli-container\"><div class=\"flankerLeft_2\"><div class=\"cue-text\"><img class = center src=\"/static/experiments/flanker_rdoc_practice__fmri/images/F.png\"></img></div></div><div class=\"flankerLeft_1\"><div class=\"cue-text\"><img class = center src=\"/static/experiments/flanker_rdoc_practice__fmri/images/F.png\"></img></div></div><div class=\"flankerMiddle\"><div class=\"cue-text\"><img class = center src=\"/static/experiments/flanker_rdoc_practice__fmri/images/H.png\"></img></div></div><div class=\"flankerRight_1\"><div class=\"cue-text\"><img class = center src=\"/static/experiments/flanker_rdoc_practice__fmri/images/F.png\"></img></div></div><div class=\"flankerRight_2\"><div class=\"cue-text\"><img class = center src=\"/static/experiments/flanker_rdoc_practice__fmri/images/F.png\"></img></div></div></div></div>","response":"y","correct_response":"y","condition":"incongruent","trial_id":"practice_trial","flanker":"F","center_letter":"H","exp_stage":"practice","choices":["y","g"],"trial_duration":1500,"stimulus_duration":1000,"block_num":0,"trial_type":"html-keyboard-response","trial_index":4,"time_elapsed":3364689,"internal_node_id":"0.0-2.0-2.0","correct_trial":1},{"rt":null,"stimulus":"<div class=center-box><div class=center-text><font size =20>Correct!</font></div></div>","response":null,"exp_stage":"practice","trial_id":"practice_feedback","trial_duration":500,"stimulus_duration":500,"block_num":0,"trial_type":"html-keyboard-response","trial_index":5,"time_elapsed":3365191,"internal_node_id":"0.0-2.0-3.0"},{"rt":null,"stimulus":"<div class = centerbox><div class = fixation>+</div></div>","response":null,"trial_id":"practice_ITI","ITIParams":{"min":0.5,"max":5.5,"mean":1},"block_num":0,"exp_stage":"practice","trial_type":"html-keyboard-response","trial_index":6,"time_elapsed":3365847,"internal_node_id":"0.0-2.0-4.0","trial_duration":655.9032459277571,"stimulus_duration":655.9032459277571},{"rt":406,"stimulus":"<div class=\"centerbox-flex\"><div class=\"stimuli-container\"><div class=\"flankerLeft_2\"><div class=\"cue-text\"><img class = center src=\"/static/experiments/flanker_rdoc_practice__fmri/images/H.png\"></img></div></div><div class=\"flankerLeft_1\"><div class=\"cue-text\"><img class = center src=\"/static/experiments/flanker_rdoc_practice__fmri/images/H.png\"></img></div></div><div class=\"flankerMiddle\"><div class=\"cue-text\"><img class = center src=\"/static/experiments/flanker_rdoc_practice__fmri/images/H.png\"></img></div></div><div class=\"flankerRight_1\"><div class=\"cue-text\"><img class = center src=\"/static/experiments/flanker_rdoc_practice__fmri/images/H.png\"></img></div></div><div class=\"flankerRight_2\"><div class=\"cue-text\"><img class = center src=\"/static/experiments/flanker_rdoc_practice__fmri/images/H.png\"></img></div></div></div></div>","response":"y","correct_response":"y","condition":"congruent","trial_id":"practice_trial","flanker":"H","center_letter":"H","exp_stage":"practice","choices":["y","g"],"trial_duration":1500,"stimulus_duration":1000,"block_num":0,"trial_type":"html-keyboard-response","trial_index":7,"time_elapsed":3367353,"internal_node_id":"0.0-2.0-5.0","correct_trial":1},{"rt":null,"stimulus":"<div class=center-box><div class=center-text><font size =20>Correct!</font></div></div>","response":null,"exp_stage":"practice","trial_id":"practice_feedback","trial_duration":500,"stimulus_duration":500,"block_num":0,"trial_type":"html-keyboard-response","trial_index":8,"time_elapsed":3367859,"internal_node_id":"0.0-2.0-6.0"},{"rt":null,"stimulus":"<div class = centerbox><div class = fixation>+</div></div>","response":null,"trial_id":"practice_ITI","ITIParams":{"min":0.5,"max":5.5,"mean":1},"block_num":0,"exp_stage":"practice","trial_type":"html-keyboard-response","trial_index":9,"time_elapsed":3369647,"internal_node_id":"0.0-2.0-7.0","trial_duration":1786.3131047725517,"stimulus_duration":1786.3131047725517},{"rt":421,"stimulus":"<div class=\"centerbox-flex\"><div class=\"stimuli-container\"><div class=\"flankerLeft_2\"><div class=\"cue-text\"><img class = center src=\"/static/experiments/flanker_rdoc_practice__fmri/images/H.png\"></img></div></div><div class=\"flankerLeft_1\"><div class=\"cue-text\"><img class = center src=\"/static/experiments/flanker_rdoc_practice__fmri/images/H.png\"></img></div></div><div class=\"flankerMiddle\"><div class=\"cue-text\"><img class = center src=\"/static/experiments/flanker_rdoc_practice__fmri/images/F.png\"></img></div></div><div class=\"flankerRight_1\"><div class=\"cue-text\"><img class = center src=\"/static/experiments/flanker_rdoc_practice__fmri/images/H.png\"></img></div></div><div class=\"flankerRight_2\"><div class=\"cue-text\"><img class = center src=\"/static/experiments/flanker_rdoc_practice__fmri/images/H.png\"></img></div></div></div></div>","response":"g","correct_response":"g","condition":"incongruent","trial_id":"practice_trial","flanker":"H","center_letter":"F","exp_stage":"practice","choices":["y","g"],"trial_duration":1500,"stimulus_duration":1000,"block_num":0,"trial_type":"html-keyboard-response","trial_index":10,"time_elapsed":3371152,"internal_node_id":"0.0-2.0-8.0","correct_trial":1},{"rt":null,"stimulus":"<div class=center-box><div class=center-text><font size =20>Correct!</font></div></div>","response":null,"exp_stage":"practice","trial_id":"practice_feedback","trial_duration":500,"stimulus_duration":500,"block_num":0,"trial_type":"html-keyboard-response","trial_index":11,"time_elapsed":3371659,"internal_node_id":"0.0-2.0-9.0"},{"rt":null,"stimulus":"<div class = centerbox><div class = fixation>+</div></div>","response":null,"trial_id":"practice_ITI","ITIParams":{"min":0.5,"max":5.5,"mean":1},"block_num":0,"exp_stage":"practice","trial_type":"html-keyboard-response","trial_index":12,"time_elapsed":3372800,"internal_node_id":"0.0-2.0-10.0","trial_duration":1137.1983241945766,"stimulus_duration":1137.1983241945766},{"rt":487,"stimulus":"<div class=\"centerbox-flex\"><div class=\"stimuli-container\"><div class=\"flankerLeft_2\"><div class=\"cue-text\"><img class = center src=\"/static/experiments/flanker_rdoc_practice__fmri/images/F.png\"></img></div></div><div class=\"flankerLeft_1\"><div class=\"cue-text\"><img class = center src=\"/static/experiments/flanker_rdoc_practice__fmri/images/F.png\"></img></div></div><div class=\"flankerMiddle\"><div class=\"cue-text\"><img class = center src=\"/static/experiments/flanker_rdoc_practice__fmri/images/F.png\"></img></div></div><div class=\"flankerRight_1\"><div class=\"cue-text\"><img class = center src=\"/static/experiments/flanker_rdoc_practice__fmri/images/F.png\"></img></div></div><div class=\"flankerRight_2\"><div class=\"cue-text\"><img class = center src=\"/static/experiments/flanker_rdoc_practice__fmri/images/F.png\"></img></div></div></div></div>","response":"g","correct_response":"g","condition":"congruent","trial_id":"practice_trial","flanker":"F","center_letter":"F","exp_stage":"practice","choices":["y","g"],"trial_duration":1500,"stimulus_duration":1000,"block_num":0,"trial_type":"html-keyboard-response","trial_index":13,"time_elapsed":3374306,"internal_node_id":"0.0-2.0-11.0","correct_trial":1},{"rt":null,"stimulus":"<div class=center-box><div class=center-text><font size =20>Correct!</font></div></div>","response":null,"exp_stage":"practice","trial_id":"practice_feedback","trial_duration":500,"stimulus_duration":500,"block_num":0,"trial_type":"html-keyboard-response","trial_index":14,"time_elapsed":3374810,"internal_node_id":"0.0-2.0-12.0"},{"rt":4199,"stimulus":"<div class=\"bigbox\"><div class=\"picture_box\"><p class=\"block-text\"><div class = centerbox><p class = block-text>Please take a short break.</p></div></p></div></div>","response":" ","trial_id":"practice_feedback","exp_stage":"practice","trial_duration":4000,"block_num":0,"trial_type":"html-keyboard-response","trial_index":15,"time_elapsed":3379011,"internal_node_id":"0.0-3.0","block_level_feedback":{}},{"rt":null,"stimulus":"\n  <div class=\"centerbox\" style=\"height: 50vh;\">\n    <p class=\"center-block-text\">Thanks for completing this task!</p>\n  </div>","response":null,"trial_id":"end","exp_id":"flanker_rdoc_practice__fmri","trial_duration":10000,"trial_type":"html-keyboard-response","trial_index":16,"time_elapsed":3389017,"internal_node_id":"0.0-4.0"},{"success":true,"trial_type":"fullscreen","trial_index":17,"time_elapsed":3390114,"internal_node_id":"0.0-5.0"}]